"","ExperimentName","Subject","Session","Clock.Information","DataFile.Basename","Display.RefreshRate","ExperimentVersion","Group","RandomSeed","RuntimeCapabilities","RuntimeVersion","RuntimeVersionExpected","SessionDate","SessionStartDateTimeUtc","SessionTime","StudioVersion","Block","AccErrorTotal","MathCorrect","MathDuration","MathErrorTotal","mathtime.Block.","OSPAN","OSPAN.Cycle","OSPAN.Sample","OspanAbsoluteScore","OspanPartialScore","OspanPartialScoreBlock1","OspanPartialScoreBlock2","OspanPartialScoreBlock3","OspanScore","OspanTotal","Procedure.Block.","Running.Block.","SpeedErrorTotal","Trial","answer","BlockList1","BlockList1.Cycle","BlockList1.Sample","BlockList2","BlockList2.Cycle","BlockList2.Sample","BlockList3","BlockList3.Cycle","BlockList3.Sample","CorrectAnswer.Trial.","CorrectAnswerRecord.Trial.","correctResp","LetterPracticeList","LetterPracticeList.Cycle","LetterPracticeList.Sample","math.ACC","math.RT","MathPracticeList","MathPracticeList.Cycle","MathPracticeList.Sample","mathProblems","mathtime.Trial.","numberwrong","PracticeMode","PracticeOSPANlist","PracticeOSPANlist.Cycle","PracticeOSPANlist.Sample","problem","problem.RT","problems","Procedure.Trial.","ReadyForTrial.ACC","ReadyForTrial.RT","Running.Trial.","setlength","setsi","setsize1","setsize2","setsize3","setsz","sizeset","SpanScore.Trial.","SpanTotal.Trial.","SubTrial","CorrectAnswer.SubTrial.","correctAnswerPercentage","correctAnswerPercentage1","correctAnswerPercentage2","CorrectAnswerRecord.SubTrial.","difficulty","letters","lettershow","letterstimuli","MathCorr","operations","operations1","operations2","percrand","PracticeLetterList","practicelist","practicelist.Cycle","practicelist.Sample","practicerecall","practicerecall.Cycle","practicerecall.Sample","Procedure.SubTrial.","randomnumber","randomnumber1","randomnumber2","recalList","recalList.Cycle","recalList.Sample","recalList1","recalList1.Cycle","recalList1.Sample","recalList2","recalList2.Cycle","recalList2.Sample","ResponseRecord","Running.SubTrial.","secondOperation","secondOperation1","secondOperation2","showcorrect","SpanScore.SubTrial.","SpanTotal.SubTrial.","SpanTotalBlock1","SpanTotalBlock2","SpanTotalBlock3","stims","stims1","stims2","Tones","TrialList","TrialList.Cycle","TrialList.Sample","TrialList1","TrialList1.Cycle","TrialList1.Sample","TrialList2","TrialList2.Cycle","TrialList2.Sample","Subject.1","Response.Type","Strategy.RESP"
"1","Tone Span Fall2017_itemScoring",1001,1,"<?xml version=""1.0""?>\n<Clock xmlns:dt=""urn:schemas-microsoft-com:datatypes""><Description dt:dt=""string"">E-Prime Primary Realtime Clock</Description><StartTime><Timestamp dt:dt=""int"">0</Timestamp><DateUtc dt:dt=""string"">2017-11-09T19:00:29Z</DateUtc></StartTime><FrequencyChanges><FrequencyChange><Frequency dt:dt=""r8"">3117851</Frequency><Timestamp dt:dt=""r8"">7322819285262</Timestamp><Current dt:dt=""r8"">0</Current><DateUtc dt:dt=""string"">2017-11-09T19:00:29Z</DateUtc></FrequencyChange></FrequencyChanges></Clock>\n","Tone Span Fall2017_itemScoring-1001-1",59.932,"1.0.0.175",1,-99753574,"Professional","2.0.10.356","2.0.10.356","11/9/17","11/9/17 19:00","13:00:29","2.0.10.252",4,4,76,NA,5,3814.5,5,1,4,32,47,13,17,17,NA,NA,"SessionProc","OSPAN",1,1,NA,1,1,1,NA,NA,NA,NA,NA,NA,NA,"HLMMLHL",NA,NA,NA,NA,NA,NA,NA,NA,NA,NA,8356,2,"No",NA,NA,NA,NA,NA,NA,"BlockProc",NA,NA,"BlockList1",NA,NA,6,NA,NA,7,NA,"?","?",1,FALSE,8,NA,NA,"HLMMLHL",2,NA,NA,"H",FALSE,47,NA,NA,2,NA,NA,NA,NA,NA,NA,NA,"TrialProc",14,NA,NA,NA,NA,NA,NA,NA,NA,NA,NA,NA,"","TrialList",6,NA,NA,2,"?","?",NA,NA,NA,3,NA,NA,"High.wav",1,8,7,NA,NA,NA,NA,NA,NA,"1001","RESPONSE","Repeat the previous notes between each problem. "
"91","Tone Span Fall2017_itemScoring",1002,1,"<?xml version=""1.0""?>\n<Clock xmlns:dt=""urn:schemas-microsoft-com:datatypes""><Description dt:dt=""string"">E-Prime Primary Realtime Clock</Description><StartTime><Timestamp dt:dt=""int"">0</Timestamp><DateUtc dt:dt=""string"">2017-11-13T18:39:14Z</DateUtc></StartTime><FrequencyChanges><FrequencyChange><Frequency dt:dt=""r8"">3117822</Frequency><Timestamp dt:dt=""r8"">1344548150396</Timestamp><Current dt:dt=""r8"">0</Current><DateUtc dt:dt=""string"">2017-11-13T18:39:14Z</DateUtc></FrequencyChange></FrequencyChanges></Clock>\n","Tone Span Fall2017_itemScoring-1002-1",59.932,"1.0.0.175",1,224007129,"Professional","2.0.10.356","2.0.10.356","11/13/17","11/13/17 18:39","12:39:14","2.0.10.252",4,3,77,NA,4,3867.077922,5,1,4,51,64,25,19,20,NA,NA,"SessionProc","OSPAN",1,1,NA,1,1,1,NA,NA,NA,NA,NA,NA,NA,"HMLLMHM",NA,NA,NA,NA,NA,NA,NA,NA,NA,NA,9056,0,"No",NA,NA,NA,NA,NA,NA,"BlockProc",NA,NA,"BlockList1",NA,NA,6,NA,NA,7,NA,"?","?",1,FALSE,10,NA,NA,"HMLLMHM",1,NA,NA,"H",FALSE,20,NA,NA,2,NA,NA,NA,NA,NA,NA,NA,"TrialProc",9,NA,NA,NA,NA,NA,NA,NA,NA,NA,NA,NA,"","TrialList",4,NA,NA,2,"?","?",NA,NA,NA,3,NA,NA,"High.wav",1,8,7,NA,NA,NA,NA,NA,NA,"1002","RESPONSE","i just repeated the tones in the order in my head after every math problem from the beginning.  "
"181","Tone Span Fall2017_itemScoring",1003,1,"<?xml version=""1.0""?>\n<Clock xmlns:dt=""urn:schemas-microsoft-com:datatypes""><Description dt:dt=""string"">E-Prime Primary Realtime Clock</Description><StartTime><Timestamp dt:dt=""int"">0</Timestamp><DateUtc dt:dt=""string"">2017-11-13T18:39:19Z</DateUtc></StartTime><FrequencyChanges><FrequencyChange><Frequency dt:dt=""r8"">3117851</Frequency><Timestamp dt:dt=""r8"">8396157748810</Timestamp><Current dt:dt=""r8"">0</Current><DateUtc dt:dt=""string"">2017-11-13T18:39:19Z</DateUtc></FrequencyChange></FrequencyChanges></Clock>\n","Tone Span Fall2017_itemScoring-1003-1",59.933,"1.0.0.175",1,-503112120,"Professional","2.0.10.356","2.0.10.356","11/13/17","11/13/17 18:39","12:39:19","2.0.10.252",4,1,77,NA,4,4220.532468,5,1,4,26,60,21,19,20,NA,NA,"SessionProc","OSPAN",3,1,NA,1,1,1,NA,NA,NA,NA,NA,NA,NA,"MHL",NA,NA,NA,NA,NA,NA,NA,NA,NA,NA,9838,0,"No",NA,NA,NA,NA,NA,NA,"BlockProc",NA,NA,"BlockList1",NA,NA,2,NA,NA,3,NA,"?","?",1,TRUE,4,NA,NA,"MHL",1,NA,NA,"M",TRUE,10,NA,NA,1,NA,NA,NA,NA,NA,NA,NA,"TrialProc",3,NA,NA,NA,NA,NA,NA,NA,NA,NA,NA,NA,"","TrialList",8,NA,NA,1,"?","?",NA,NA,NA,2,NA,NA,"Middle.wav",1,8,7,NA,NA,NA,NA,NA,NA,"1003","RESPONSE","I converted the sounds into numbers. L=1 M=2 H=3. Then I kept count on my fingers how many sounds played. a repeated the number i would make back to myself. 1 then 13 then 132 then132312LEFTARROWLEFTARROWLEFTARROWLEFTARROWRIGHTARROWRIGHTARROWRIGHTARROWRIGHTARROW  "
"271","Tone Span Fall2017_itemScoring",1004,1,"<?xml version=""1.0""?>\n<Clock xmlns:dt=""urn:schemas-microsoft-com:datatypes""><Description dt:dt=""string"">E-Prime Primary Realtime Clock</Description><StartTime><Timestamp dt:dt=""int"">0</Timestamp><DateUtc dt:dt=""string"">2017-11-13T20:37:42Z</DateUtc></StartTime><FrequencyChanges><FrequencyChange><Frequency dt:dt=""r8"">3117851</Frequency><Timestamp dt:dt=""r8"">8418303715951</Timestamp><Current dt:dt=""r8"">0</Current><DateUtc dt:dt=""string"">2017-11-13T20:37:42Z</DateUtc></FrequencyChange></FrequencyChanges></Clock>\n","Tone Span Fall2017_itemScoring-1004-1",59.932,"1.0.0.175",1,168017613,"Professional","2.0.10.356","2.0.10.356","11/13/17","11/13/17 20:37","14:37:42","2.0.10.252",4,1,80,NA,1,4519.3375,5,1,4,61,73,24,24,25,NA,NA,"SessionProc","OSPAN",0,1,NA,1,1,1,NA,NA,NA,NA,NA,NA,NA,"MHLMHLM",NA,NA,NA,NA,NA,NA,NA,NA,NA,NA,16714,0,"No",NA,NA,NA,NA,NA,NA,"BlockProc",NA,NA,"BlockList1",NA,NA,6,NA,NA,7,NA,"?","?",1,TRUE,2,NA,NA,"MHLMHLM",1,NA,NA,"M",TRUE,5,NA,NA,1,NA,NA,NA,NA,NA,NA,NA,"TrialProc",18,NA,NA,NA,NA,NA,NA,NA,NA,NA,NA,NA,"","TrialList",6,NA,NA,1,"?","?",NA,NA,NA,2,NA,NA,"Middle.wav",1,8,7,NA,NA,NA,NA,NA,NA,"1004","RESPONSE","I used my fingers to count and to remember the order of the tones. "
"361","Tone Span Fall2017_itemScoring",1005,1,"<?xml version=""1.0""?>\n<Clock xmlns:dt=""urn:schemas-microsoft-com:datatypes""><Description dt:dt=""string"">E-Prime Primary Realtime Clock</Description><StartTime><Timestamp dt:dt=""int"">0</Timestamp><DateUtc dt:dt=""string"">2017-11-14T17:08:29Z</DateUtc></StartTime><FrequencyChanges><FrequencyChange><Frequency dt:dt=""r8"">3117822</Frequency><Timestamp dt:dt=""r8"">1596906691600</Timestamp><Current dt:dt=""r8"">0</Current><DateUtc dt:dt=""string"">2017-11-14T17:08:29Z</DateUtc></FrequencyChange></FrequencyChanges></Clock>\n","Tone Span Fall2017_itemScoring-1005-1",59.932,"1.0.0.175",1,-820542748,"Professional","2.0.10.356","2.0.10.356","11/14/17","11/14/17 17:08","11:08:29","2.0.10.252",4,4,77,NA,4,2754.064935,5,1,4,25,50,13,16,21,NA,NA,"SessionProc","OSPAN",0,1,NA,1,1,1,NA,NA,NA,NA,NA,NA,NA,"HLMMHL",NA,NA,NA,NA,NA,NA,NA,NA,NA,NA,9047,0,"No",NA,NA,NA,NA,NA,NA,"BlockProc",NA,NA,"BlockList1",NA,NA,5,NA,NA,6,NA,"?","?",1,FALSE,6,NA,NA,"HLMMHL",1,NA,NA,"H",FALSE,18,NA,NA,2,NA,NA,NA,NA,NA,NA,NA,"TrialProc",4,NA,NA,NA,NA,NA,NA,NA,NA,NA,NA,NA,"","TrialList",16,NA,NA,2,"?","?",NA,NA,NA,3,NA,NA,"High.wav",1,8,7,NA,NA,NA,NA,NA,NA,"1005","RESPONSE","i tried to keep track of the sounds using my fingers "
"451","Tone Span Fall2017_itemScoring",1006,1,"<?xml version=""1.0""?>\n<Clock xmlns:dt=""urn:schemas-microsoft-com:datatypes""><Description dt:dt=""string"">E-Prime Primary Realtime Clock</Description><StartTime><Timestamp dt:dt=""int"">0</Timestamp><DateUtc dt:dt=""string"">2017-11-14T17:10:17Z</DateUtc></StartTime><FrequencyChanges><FrequencyChange><Frequency dt:dt=""r8"">3117851</Frequency><Timestamp dt:dt=""r8"">8648842231673</Timestamp><Current dt:dt=""r8"">0</Current><DateUtc dt:dt=""string"">2017-11-14T17:10:17Z</DateUtc></FrequencyChange></FrequencyChanges></Clock>\n","Tone Span Fall2017_itemScoring-1006-1",59.932,"1.0.0.175",1,-1221700711,"Professional","2.0.10.356","2.0.10.356","11/14/17","11/14/17 17:10","11:10:17","2.0.10.252",4,6,73,NA,8,2268.821918,5,1,4,50,65,22,20,23,NA,NA,"SessionProc","OSPAN",2,1,NA,1,1,1,NA,NA,NA,NA,NA,NA,NA,"HMLHLMH",NA,NA,NA,NA,NA,NA,NA,NA,NA,NA,5359,1,"No",NA,NA,NA,NA,NA,NA,"BlockProc",NA,NA,"BlockList1",NA,NA,6,NA,NA,7,NA,"?","?",1,TRUE,2,NA,NA,"HMLHLMH",1,NA,NA,"H",TRUE,36,NA,NA,1,NA,NA,NA,NA,NA,NA,NA,"TrialProc",7,NA,NA,NA,NA,NA,NA,NA,NA,NA,NA,NA,"","TrialList",12,NA,NA,1,"?","?",NA,NA,NA,3,NA,NA,"High.wav",1,8,7,NA,NA,NA,NA,NA,NA,"1006","RESPONSE","I mouthed the word of each tone after I heard it in order to memorize it "
"541","Tone Span Fall2017_itemScoring",1007,1,"<?xml version=""1.0""?>\n<Clock xmlns:dt=""urn:schemas-microsoft-com:datatypes""><Description dt:dt=""string"">E-Prime Primary Realtime Clock</Description><StartTime><Timestamp dt:dt=""int"">0</Timestamp><DateUtc dt:dt=""string"">2017-11-14T19:01:44Z</DateUtc></StartTime><FrequencyChanges><FrequencyChange><Frequency dt:dt=""r8"">3117822</Frequency><Timestamp dt:dt=""r8"">1618093968228</Timestamp><Current dt:dt=""r8"">0</Current><DateUtc dt:dt=""string"">2017-11-14T19:01:44Z</DateUtc></FrequencyChange></FrequencyChanges></Clock>\n","Tone Span Fall2017_itemScoring-1007-1",59.932,"1.0.0.175",1,-1108500975,"Professional","2.0.10.356","2.0.10.356","11/14/17","11/14/17 19:01","13:01:44","2.0.10.252",4,5,75,NA,5,1326.053333,5,1,4,3,7,1,3,3,NA,NA,"SessionProc","OSPAN",0,1,NA,1,1,1,NA,NA,NA,NA,NA,NA,NA,"MHL",NA,NA,NA,NA,NA,NA,NA,NA,NA,NA,4395,0,"No",NA,NA,NA,NA,NA,NA,"BlockProc",NA,NA,"BlockList1",NA,NA,2,NA,NA,3,NA,"?","?",1,FALSE,10,NA,NA,"MHL",1,NA,NA,"M",FALSE,21,NA,NA,2,NA,NA,NA,NA,NA,NA,NA,"TrialProc",5,NA,NA,NA,NA,NA,NA,NA,NA,NA,NA,NA,"","TrialList",10,NA,NA,2,"?","?",NA,NA,NA,2,NA,NA,"Middle.wav",1,8,7,NA,NA,NA,NA,NA,NA,"1007","RESPONSE","I could not use any strategies. My average math time was too fast. "
"631","Tone Span Fall2017_itemScoring",1008,1,"<?xml version=""1.0""?>\n<Clock xmlns:dt=""urn:schemas-microsoft-com:datatypes""><Description dt:dt=""string"">E-Prime Primary Realtime Clock</Description><StartTime><Timestamp dt:dt=""int"">0</Timestamp><DateUtc dt:dt=""string"">2017-11-14T19:00:58Z</DateUtc></StartTime><FrequencyChanges><FrequencyChange><Frequency dt:dt=""r8"">3117851</Frequency><Timestamp dt:dt=""r8"">8669548004356</Timestamp><Current dt:dt=""r8"">0</Current><DateUtc dt:dt=""string"">2017-11-14T19:00:58Z</DateUtc></FrequencyChange></FrequencyChanges></Clock>\n","Tone Span Fall2017_itemScoring-1008-1",59.932,"1.0.0.175",1,-1990765523,"Professional","2.0.10.356","2.0.10.356","11/14/17","11/14/17 19:00","13:00:58","2.0.10.252",4,4,76,NA,5,5110.078947,5,1,4,65,71,23,25,23,NA,NA,"SessionProc","OSPAN",1,1,NA,1,1,1,NA,NA,NA,NA,NA,NA,NA,"LMHHMLM",NA,NA,NA,NA,NA,NA,NA,NA,NA,NA,12518,0,"No",NA,NA,NA,NA,NA,NA,"BlockProc",NA,NA,"BlockList1",NA,NA,6,NA,NA,7,NA,"?","?",1,FALSE,9,NA,NA,"LMHHMLM",1,NA,NA,"L",FALSE,5,NA,NA,2,NA,NA,NA,NA,NA,NA,NA,"TrialProc",6,NA,NA,NA,NA,NA,NA,NA,NA,NA,NA,NA,"","TrialList",2,NA,NA,2,"?","?",NA,NA,NA,1,NA,NA,"Low.wav",1,8,7,NA,NA,NA,NA,NA,NA,"1008","RESPONSE","i would constantly repeat the order of the tones in my head "
"721","Tone Span Fall2017_itemScoring",1009,1,"<?xml version=""1.0""?>\n<Clock xmlns:dt=""urn:schemas-microsoft-com:datatypes""><Description dt:dt=""string"">E-Prime Primary Realtime Clock</Description><StartTime><Timestamp dt:dt=""int"">0</Timestamp><DateUtc dt:dt=""string"">2017-11-15T18:42:22Z</DateUtc></StartTime><FrequencyChanges><FrequencyChange><Frequency dt:dt=""r8"">3117822</Frequency><Timestamp dt:dt=""r8"">1883802360279</Timestamp><Current dt:dt=""r8"">0</Current><DateUtc dt:dt=""string"">2017-11-15T18:42:22Z</DateUtc></FrequencyChange></FrequencyChanges></Clock>\n","Tone Span Fall2017_itemScoring-1009-1",59.932,"1.0.0.175",1,-1687661491,"Professional","2.0.10.356","2.0.10.356","11/15/17","11/15/17 18:42","12:42:22","2.0.10.252",4,6,73,NA,6,2197.383562,5,1,4,8,30,9,8,13,NA,NA,"SessionProc","OSPAN",0,1,NA,1,1,1,NA,NA,NA,NA,NA,NA,NA,"LHMLMH",NA,NA,NA,NA,NA,NA,NA,NA,NA,NA,5562,0,"No",NA,NA,NA,NA,NA,NA,"BlockProc",NA,NA,"BlockList1",NA,NA,5,NA,NA,6,NA,"?","?",1,TRUE,3,NA,NA,"LHMLMH",1,NA,NA,"L",TRUE,31,NA,NA,1,NA,NA,NA,NA,NA,NA,NA,"TrialProc",14,NA,NA,NA,NA,NA,NA,NA,NA,NA,NA,NA,"","TrialList",14,NA,NA,1,"?","?",NA,NA,NA,1,NA,NA,"Low.wav",1,8,7,NA,NA,NA,NA,NA,NA,"1009","RESPONSE","constantly repeating to myself L, M, H depending on the order they fell in and then answered those based on that if i could remember them all "
"811","Tone Span Fall2017_itemScoring",1010,1,"<?xml version=""1.0""?>\n<Clock xmlns:dt=""urn:schemas-microsoft-com:datatypes""><Description dt:dt=""string"">E-Prime Primary Realtime Clock</Description><StartTime><Timestamp dt:dt=""int"">0</Timestamp><DateUtc dt:dt=""string"">2017-11-15T20:42:53Z</DateUtc></StartTime><FrequencyChanges><FrequencyChange><Frequency dt:dt=""r8"">3117822</Frequency><Timestamp dt:dt=""r8"">1906345585973</Timestamp><Current dt:dt=""r8"">0</Current><DateUtc dt:dt=""string"">2017-11-15T20:42:53Z</DateUtc></FrequencyChange></FrequencyChanges></Clock>\n","Tone Span Fall2017_itemScoring-1010-1",59.932,"1.0.0.175",1,-619691193,"Professional","2.0.10.356","2.0.10.356","11/15/17","11/15/17 20:42","14:42:53","2.0.10.252",4,4,76,NA,5,1479.921053,5,1,4,49,65,19,23,23,NA,NA,"SessionProc","OSPAN",1,1,NA,1,1,1,NA,NA,NA,NA,NA,NA,NA,"LHMLHM",NA,NA,NA,NA,NA,NA,NA,NA,NA,NA,3756,1,"No",NA,NA,NA,NA,NA,NA,"BlockProc",NA,NA,"BlockList1",NA,NA,5,NA,NA,6,NA,"?","?",1,TRUE,1,NA,NA,"LHMLHM",1,NA,NA,"L",TRUE,16,NA,NA,1,NA,NA,NA,NA,NA,NA,NA,"TrialProc",18,NA,NA,NA,NA,NA,NA,NA,NA,NA,NA,NA,"","TrialList",16,NA,NA,1,"?","?",NA,NA,NA,1,NA,NA,"Low.wav",1,8,7,NA,NA,NA,NA,NA,NA,"1010","RESPONSE","I used the 1st, 3rd, and 5th finger of my left hand and designated each as L M or H and repeated the pattern after each math problem, while adding the most recent tone "
"901","Tone Span Fall2017_itemScoring",1011,1,"<?xml version=""1.0""?>\n<Clock xmlns:dt=""urn:schemas-microsoft-com:datatypes""><Description dt:dt=""string"">E-Prime Primary Realtime Clock</Description><StartTime><Timestamp dt:dt=""int"">0</Timestamp><DateUtc dt:dt=""string"">2017-11-17T17:39:01Z</DateUtc></StartTime><FrequencyChanges><FrequencyChange><Frequency dt:dt=""r8"">3117841</Frequency><Timestamp dt:dt=""r8"">362766652910</Timestamp><Current dt:dt=""r8"">0</Current><DateUtc dt:dt=""string"">2017-11-17T17:39:01Z</DateUtc></FrequencyChange></FrequencyChanges></Clock>\n","Tone Span Fall2017_itemScoring-1011-1",59.933,"1.0.0.175",1,1989600502,"Professional","2.0.10.356","2.0.10.356","11/17/17","11/17/17 17:39","11:39:01","2.0.10.252",4,4,76,NA,4,1508.671053,5,1,4,3,34,11,14,9,NA,NA,"SessionProc","OSPAN",0,1,NA,1,1,1,NA,NA,NA,NA,NA,NA,NA,"LHMHM",NA,NA,NA,NA,NA,NA,NA,NA,NA,NA,4061,0,"No",NA,NA,NA,NA,NA,NA,"BlockProc",NA,NA,"BlockList1",NA,NA,4,NA,NA,5,NA,"?","?",1,TRUE,4,NA,NA,"LHMHM",1,NA,NA,"L",TRUE,20,NA,NA,1,NA,NA,NA,NA,NA,NA,NA,"TrialProc",17,NA,NA,NA,NA,NA,NA,NA,NA,NA,NA,NA,"","TrialList",15,NA,NA,1,"?","?",NA,NA,NA,1,NA,NA,"Low.wav",1,8,7,NA,NA,NA,NA,NA,NA,"1011","NO RESPONSE",""
"991","Tone Span Fall2017_itemScoring",1012,1,"<?xml version=""1.0""?>\n<Clock xmlns:dt=""urn:schemas-microsoft-com:datatypes""><Description dt:dt=""string"">E-Prime Primary Realtime Clock</Description><StartTime><Timestamp dt:dt=""int"">0</Timestamp><DateUtc dt:dt=""string"">2017-11-16T19:00:24Z</DateUtc></StartTime><FrequencyChanges><FrequencyChange><Frequency dt:dt=""r8"">3117822</Frequency><Timestamp dt:dt=""r8"">108982324936</Timestamp><Current dt:dt=""r8"">0</Current><DateUtc dt:dt=""string"">2017-11-16T19:00:24Z</DateUtc></FrequencyChange></FrequencyChanges></Clock>\n","Tone Span Fall2017_itemScoring-1012-1",59.932,"1.0.0.175",1,1608343131,"Professional","2.0.10.356","2.0.10.356","11/16/17","11/16/17 19:00","13:00:24","2.0.10.252",4,4,75,NA,5,2518.666667,5,1,4,21,59,20,19,20,NA,NA,"SessionProc","OSPAN",1,1,NA,1,1,1,NA,NA,NA,NA,NA,NA,NA,"HMLL",NA,NA,NA,NA,NA,NA,NA,NA,NA,NA,7462,0,"No",NA,NA,NA,NA,NA,NA,"BlockProc",NA,NA,"BlockList1",NA,NA,3,NA,NA,4,NA,"?","?",1,FALSE,10,NA,NA,"HMLL",2,NA,NA,"H",FALSE,46,NA,NA,2,NA,NA,NA,NA,NA,NA,NA,"TrialProc",3,NA,NA,NA,NA,NA,NA,NA,NA,NA,NA,NA,"","TrialList",15,NA,NA,2,"?","?",NA,NA,NA,3,NA,NA,"High.wav",1,8,7,NA,NA,NA,NA,NA,NA,"1012","RESPONSE","Repeating the sequence of noises in my head when a new one was added "
"1081","Tone Span Fall2017_itemScoring",1013,1,"<?xml version=""1.0""?>\n<Clock xmlns:dt=""urn:schemas-microsoft-com:datatypes""><Description dt:dt=""string"">E-Prime Primary Realtime Clock</Description><StartTime><Timestamp dt:dt=""int"">0</Timestamp><DateUtc dt:dt=""string"">2017-11-20T18:39:06Z</DateUtc></StartTime><FrequencyChanges><FrequencyChange><Frequency dt:dt=""r8"">3117822</Frequency><Timestamp dt:dt=""r8"">1182309821181</Timestamp><Current dt:dt=""r8"">0</Current><DateUtc dt:dt=""string"">2017-11-20T18:39:06Z</DateUtc></FrequencyChange></FrequencyChanges></Clock>\n","Tone Span Fall2017_itemScoring-1013-1",59.932,"1.0.0.175",1,1194017044,"Professional","2.0.10.356","2.0.10.356","11/20/17","11/20/17 18:39","12:39:06","2.0.10.252",4,5,74,NA,7,3494.689189,5,1,4,37,62,20,23,19,NA,NA,"SessionProc","OSPAN",2,1,NA,1,1,1,NA,NA,NA,NA,NA,NA,NA,"LHMLH",NA,NA,NA,NA,NA,NA,NA,NA,NA,NA,8355,1,"No",NA,NA,NA,NA,NA,NA,"BlockProc",NA,NA,"BlockList1",NA,NA,4,NA,NA,5,NA,"?","?",1,FALSE,7,NA,NA,"LHMLH",1,NA,NA,"L",FALSE,5,NA,NA,2,NA,NA,NA,NA,NA,NA,NA,"TrialProc",11,NA,NA,NA,NA,NA,NA,NA,NA,NA,NA,NA,"","TrialList",8,NA,NA,2,"?","?",NA,NA,NA,1,NA,NA,"Low.wav",1,8,7,NA,NA,NA,NA,NA,NA,"1013","RESPONSE","counting how many sounds there were "
"1171","Tone Span Fall2017_itemScoring",1014,1,"<?xml version=""1.0""?>\n<Clock xmlns:dt=""urn:schemas-microsoft-com:datatypes""><Description dt:dt=""string"">E-Prime Primary Realtime Clock</Description><StartTime><Timestamp dt:dt=""int"">0</Timestamp><DateUtc dt:dt=""string"">2017-11-20T18:47:35Z</DateUtc></StartTime><FrequencyChanges><FrequencyChange><Frequency dt:dt=""r8"">3117822</Frequency><Timestamp dt:dt=""r8"">3231424397411</Timestamp><Current dt:dt=""r8"">0</Current><DateUtc dt:dt=""string"">2017-11-20T18:47:35Z</DateUtc></FrequencyChange></FrequencyChanges></Clock>\n","Tone Span Fall2017_itemScoring-1014-1",59.932,"1.0.0.175",1,1609589040,"Professional","2.0.10.356","2.0.10.356","11/20/17","11/20/17 18:47","12:47:36","2.0.10.252",4,1,75,NA,5,3583.693333,5,1,4,16,38,11,11,16,NA,NA,"SessionProc","OSPAN",4,1,NA,1,1,1,NA,NA,NA,NA,NA,NA,NA,"LHMM",NA,NA,NA,NA,NA,NA,NA,NA,NA,NA,6560,0,"No",NA,NA,NA,NA,NA,NA,"BlockProc",NA,NA,"BlockList1",NA,NA,3,NA,NA,4,NA,"?","?",1,FALSE,10,NA,NA,"LHMM",1,NA,NA,"L",FALSE,18,NA,NA,2,NA,NA,NA,NA,NA,NA,NA,"TrialProc",4,NA,NA,NA,NA,NA,NA,NA,NA,NA,NA,NA,"","TrialList",15,NA,NA,2,"?","?",NA,NA,NA,1,NA,NA,"Low.wav",1,8,7,NA,NA,NA,NA,NA,NA,"1014","RESPONSE","Sequencing LMH when in order and just remembering order or reverse order as one tone  "
"1261","Tone Span Fall2017_itemScoring",1015,1,"<?xml version=""1.0""?>\n<Clock xmlns:dt=""urn:schemas-microsoft-com:datatypes""><Description dt:dt=""string"">E-Prime Primary Realtime Clock</Description><StartTime><Timestamp dt:dt=""int"">0</Timestamp><DateUtc dt:dt=""string"">2017-11-21T18:54:58Z</DateUtc></StartTime><FrequencyChanges><FrequencyChange><Frequency dt:dt=""r8"">3117822</Frequency><Timestamp dt:dt=""r8"">3502139165340</Timestamp><Current dt:dt=""r8"">0</Current><DateUtc dt:dt=""string"">2017-11-21T18:54:58Z</DateUtc></FrequencyChange></FrequencyChanges></Clock>\n","Tone Span Fall2017_itemScoring-1015-1",59.932,"1.0.0.175",1,1741020400,"Professional","2.0.10.356","2.0.10.356","11/21/17","11/21/17 18:54","12:54:58","2.0.10.252",4,1,80,NA,1,2262.775,5,1,4,23,56,19,18,19,NA,NA,"SessionProc","OSPAN",0,1,NA,1,1,1,NA,NA,NA,NA,NA,NA,NA,"MHLLHM",NA,NA,NA,NA,NA,NA,NA,NA,NA,NA,4806,1,"No",NA,NA,NA,NA,NA,NA,"BlockProc",NA,NA,"BlockList1",NA,NA,5,NA,NA,6,NA,"?","?",1,FALSE,9,NA,NA,"MHLLHM",1,NA,NA,"M",FALSE,34,NA,NA,2,NA,NA,NA,NA,NA,NA,NA,"TrialProc",1,NA,NA,NA,NA,NA,NA,NA,NA,NA,NA,NA,"","TrialList",13,NA,NA,2,"?","?",NA,NA,NA,2,NA,NA,"Middle.wav",1,8,7,NA,NA,NA,NA,NA,NA,"1015","RESPONSE","repeating the order of every set of tones over in my head after a new tone was played  "
"1351","Tone Span Fall2017_itemScoring",1016,1,"<?xml version=""1.0""?>\n<Clock xmlns:dt=""urn:schemas-microsoft-com:datatypes""><Description dt:dt=""string"">E-Prime Primary Realtime Clock</Description><StartTime><Timestamp dt:dt=""int"">0</Timestamp><DateUtc dt:dt=""string"">2017-11-21T18:54:12Z</DateUtc></StartTime><FrequencyChanges><FrequencyChange><Frequency dt:dt=""r8"">3117822</Frequency><Timestamp dt:dt=""r8"">1454464881080</Timestamp><Current dt:dt=""r8"">0</Current><DateUtc dt:dt=""string"">2017-11-21T18:54:12Z</DateUtc></FrequencyChange></FrequencyChanges></Clock>\n","Tone Span Fall2017_itemScoring-1016-1",59.932,"1.0.0.175",1,-1528831041,"Professional","2.0.10.356","2.0.10.356","11/21/17","11/21/17 18:54","12:54:12","2.0.10.252",4,8,71,NA,9,2882.028169,5,1,4,0,24,8,7,9,NA,NA,"SessionProc","OSPAN",1,1,NA,1,1,1,NA,NA,NA,NA,NA,NA,NA,"HMLHL",NA,NA,NA,NA,NA,NA,NA,NA,NA,NA,6597,0,"No",NA,NA,NA,NA,NA,NA,"BlockProc",NA,NA,"BlockList1",NA,NA,4,NA,NA,5,NA,"?","?",1,FALSE,9,NA,NA,"HMLHL",1,NA,NA,"H",FALSE,3,NA,NA,2,NA,NA,NA,NA,NA,NA,NA,"TrialProc",6,NA,NA,NA,NA,NA,NA,NA,NA,NA,NA,NA,"","TrialList",5,NA,NA,2,"?","?",NA,NA,NA,3,NA,NA,"High.wav",1,8,7,NA,NA,NA,NA,NA,NA,"1016","RESPONSE","the tones were hard for me to remember. "
"1441","Tone Span Fall2017_itemScoring",1019,1,"<?xml version=""1.0""?>\n<Clock xmlns:dt=""urn:schemas-microsoft-com:datatypes""><Description dt:dt=""string"">E-Prime Primary Realtime Clock</Description><StartTime><Timestamp dt:dt=""int"">0</Timestamp><DateUtc dt:dt=""string"">2017-11-27T20:42:14Z</DateUtc></StartTime><FrequencyChanges><FrequencyChange><Frequency dt:dt=""r8"">3117822</Frequency><Timestamp dt:dt=""r8"">5138247672210</Timestamp><Current dt:dt=""r8"">0</Current><DateUtc dt:dt=""string"">2017-11-27T20:42:14Z</DateUtc></FrequencyChange></FrequencyChanges></Clock>\n","Tone Span Fall2017_itemScoring-1019-1",59.932,"1.0.0.175",1,1466989323,"Professional","2.0.10.356","2.0.10.356","11/27/17","11/27/17 20:42","14:42:14","2.0.10.252",4,1,78,NA,2,3143.782051,5,1,4,15,33,9,12,12,NA,NA,"SessionProc","OSPAN",1,1,NA,1,1,1,NA,NA,NA,NA,NA,NA,NA,"MHLHLMM",NA,NA,NA,NA,NA,NA,NA,NA,NA,NA,8395,0,"No",NA,NA,NA,NA,NA,NA,"BlockProc",NA,NA,"BlockList1",NA,NA,6,NA,NA,7,NA,"?","?",1,TRUE,3,NA,NA,"MHLHLMM",2,NA,NA,"M",TRUE,38,NA,NA,1,NA,NA,NA,NA,NA,NA,NA,"TrialProc",3,NA,NA,NA,NA,NA,NA,NA,NA,NA,NA,NA,"","TrialList",8,NA,NA,1,"?","?",NA,NA,NA,2,NA,NA,"Middle.wav",1,8,7,NA,NA,NA,NA,NA,NA,"1019","RESPONSE","i tried using my fingers to remember which tone went in which order to help visualize "
"1531","Tone Span Fall2017_itemScoring",1020,1,"<?xml version=""1.0""?>\n<Clock xmlns:dt=""urn:schemas-microsoft-com:datatypes""><Description dt:dt=""string"">E-Prime Primary Realtime Clock</Description><StartTime><Timestamp dt:dt=""int"">0</Timestamp><DateUtc dt:dt=""string"">2017-11-28T16:13:02Z</DateUtc></StartTime><FrequencyChanges><FrequencyChange><Frequency dt:dt=""r8"">3117822</Frequency><Timestamp dt:dt=""r8"">3309599115636</Timestamp><Current dt:dt=""r8"">0</Current><DateUtc dt:dt=""string"">2017-11-28T16:13:02Z</DateUtc></FrequencyChange></FrequencyChanges></Clock>\n","Tone Span Fall2017_itemScoring-1020-1",59.932,"1.0.0.175",1,-1820466527,"Professional","2.0.10.356","2.0.10.356","11/28/17","11/28/17 16:13","10:13:02","2.0.10.252",4,5,73,NA,8,3056.986301,5,1,4,19,56,17,19,20,NA,NA,"SessionProc","OSPAN",3,1,NA,1,1,1,NA,NA,NA,NA,NA,NA,NA,"LHML",NA,NA,NA,NA,NA,NA,NA,NA,NA,NA,6072,0,"No",NA,NA,NA,NA,NA,NA,"BlockProc",NA,NA,"BlockList1",NA,NA,3,NA,NA,4,NA,"?","?",1,FALSE,9,NA,NA,"LHML",1,NA,NA,"L",FALSE,2,NA,NA,2,NA,NA,NA,NA,NA,NA,NA,"TrialProc",2,NA,NA,NA,NA,NA,NA,NA,NA,NA,NA,NA,"","TrialList",5,NA,NA,2,"?","?",NA,NA,NA,1,NA,NA,"Low.wav",1,8,7,NA,NA,NA,NA,NA,NA,"1020","RESPONSE","I sang the notes in my head in order to register them on a mental note chart. "
"1621","Tone Span Fall2017_itemScoring",1021,1,"<?xml version=""1.0""?>\n<Clock xmlns:dt=""urn:schemas-microsoft-com:datatypes""><Description dt:dt=""string"">E-Prime Primary Realtime Clock</Description><StartTime><Timestamp dt:dt=""int"">0</Timestamp><DateUtc dt:dt=""string"">2017-11-28T18:57:06Z</DateUtc></StartTime><FrequencyChanges><FrequencyChange><Frequency dt:dt=""r8"">3117822</Frequency><Timestamp dt:dt=""r8"">5387918649326</Timestamp><Current dt:dt=""r8"">0</Current><DateUtc dt:dt=""string"">2017-11-28T18:57:06Z</DateUtc></FrequencyChange></FrequencyChanges></Clock>\n","Tone Span Fall2017_itemScoring-1021-1",59.932,"1.0.0.175",1,2029861283,"Professional","2.0.10.356","2.0.10.356","11/28/17","11/28/17 18:57","12:57:07","2.0.10.252",4,18,62,NA,19,3085.774194,5,1,4,10,42,16,11,15,NA,NA,"SessionProc","OSPAN",1,1,NA,1,1,1,NA,NA,NA,NA,NA,NA,NA,"HMLMHLL",NA,NA,NA,NA,NA,NA,NA,NA,NA,NA,6778,0,"No",NA,NA,NA,NA,NA,NA,"BlockProc",NA,NA,"BlockList1",NA,NA,6,NA,NA,7,NA,"?","?",1,TRUE,1,NA,NA,"HMLMHLL",1,NA,NA,"H",TRUE,14,NA,NA,1,NA,NA,NA,NA,NA,NA,NA,"TrialProc",9,NA,NA,NA,NA,NA,NA,NA,NA,NA,NA,NA,"","TrialList",5,NA,NA,1,"?","?",NA,NA,NA,3,NA,NA,"High.wav",1,8,7,NA,NA,NA,NA,NA,NA,"1021","RESPONSE","i tried remembering the sounds of the patterns so it would be easier "
"1711","Tone Span Fall2017_itemScoring",1022,1,"<?xml version=""1.0""?>\n<Clock xmlns:dt=""urn:schemas-microsoft-com:datatypes""><Description dt:dt=""string"">E-Prime Primary Realtime Clock</Description><StartTime><Timestamp dt:dt=""int"">0</Timestamp><DateUtc dt:dt=""string"">2017-11-28T18:56:46Z</DateUtc></StartTime><FrequencyChanges><FrequencyChange><Frequency dt:dt=""r8"">3117822</Frequency><Timestamp dt:dt=""r8"">3340225527048</Timestamp><Current dt:dt=""r8"">0</Current><DateUtc dt:dt=""string"">2017-11-28T18:56:46Z</DateUtc></FrequencyChange></FrequencyChanges></Clock>\n","Tone Span Fall2017_itemScoring-1022-1",59.932,"1.0.0.175",1,-1258828313,"Professional","2.0.10.356","2.0.10.356","11/28/17","11/28/17 18:56","12:56:46","2.0.10.252",4,7,72,NA,9,1861.652778,5,1,4,45,63,17,25,21,NA,NA,"SessionProc","OSPAN",2,1,NA,1,1,1,NA,NA,NA,NA,NA,NA,NA,"LMHML",NA,NA,NA,NA,NA,NA,NA,NA,NA,NA,3527,1,"No",NA,NA,NA,NA,NA,NA,"BlockProc",NA,NA,"BlockList1",NA,NA,4,NA,NA,5,NA,"?","?",1,FALSE,7,NA,NA,"LMHML",2,NA,NA,"L",FALSE,47,NA,NA,2,NA,NA,NA,NA,NA,NA,NA,"TrialProc",7,NA,NA,NA,NA,NA,NA,NA,NA,NA,NA,NA,"","TrialList",8,NA,NA,2,"?","?",NA,NA,NA,1,NA,NA,"Low.wav",1,8,7,NA,NA,NA,NA,NA,NA,"1022","RESPONSE","I attempted to memorize the order and repeat it adding in the new tone (e.g. Medium, Medium-Low, Medium-Low-High)h) "
"1801","Tone Span Fall2017_itemScoring",500,1,"<?xml version=""1.0""?>\n<Clock xmlns:dt=""urn:schemas-microsoft-com:datatypes""><Description dt:dt=""string"">E-Prime Primary Realtime Clock</Description><StartTime><Timestamp dt:dt=""int"">0</Timestamp><DateUtc dt:dt=""string"">2017-09-27T17:56:02Z</DateUtc></StartTime><FrequencyChanges><FrequencyChange><Frequency dt:dt=""r8"">2822988</Frequency><Timestamp dt:dt=""r8"">151734977416</Timestamp><Current dt:dt=""r8"">0</Current><DateUtc dt:dt=""string"">2017-09-27T17:56:02Z</DateUtc></FrequencyChange></FrequencyChanges></Clock>\n","Tone Span Fall2017_itemScoring-500-1",59.73,"1.0.0.166",1,1411656329,"Professional","2.0.10.353","2.0.10.353","9/27/17","9/27/17 17:56","12:56:02","2.0.10.248",4,6,73,NA,7,4066.972603,5,1,4,62,72,24,25,23,NA,NA,"SessionProc","OSPAN",1,1,NA,1,1,1,NA,NA,NA,NA,NA,NA,NA,"MLH",NA,NA,NA,NA,NA,NA,NA,NA,NA,NA,14425,0,"No",NA,NA,NA,NA,NA,NA,"BlockProc",NA,NA,"BlockList1",NA,NA,2,NA,NA,3,NA,"?","?",1,FALSE,8,NA,NA,"MLH",1,NA,NA,"M",FALSE,36,NA,NA,2,NA,NA,NA,NA,NA,NA,NA,"TrialProc",8,NA,NA,NA,NA,NA,NA,NA,NA,NA,NA,NA,"","TrialList",18,NA,NA,2,"?","?",NA,NA,NA,2,NA,NA,"Middle.wav",1,8,7,NA,NA,NA,NA,NA,NA,"500","NO RESPONSE",""
"1891","Tone Span Fall2017_itemScoring",501,1,"<?xml version=""1.0""?>\n<Clock xmlns:dt=""urn:schemas-microsoft-com:datatypes""><Description dt:dt=""string"">E-Prime Primary Realtime Clock</Description><StartTime><Timestamp dt:dt=""int"">0</Timestamp><DateUtc dt:dt=""string"">2017-09-27T19:40:08Z</DateUtc></StartTime><FrequencyChanges><FrequencyChange><Frequency dt:dt=""r8"">2822988</Frequency><Timestamp dt:dt=""r8"">169367624129</Timestamp><Current dt:dt=""r8"">0</Current><DateUtc dt:dt=""string"">2017-09-27T19:40:08Z</DateUtc></FrequencyChange></FrequencyChanges></Clock>\n","Tone Span Fall2017_itemScoring-501-1",59.73,"1.0.0.166",1,1864471992,"Professional","2.0.10.353","2.0.10.353","9/27/17","9/27/17 19:40","14:40:09","2.0.10.248",4,2,78,NA,2,3003.641026,5,1,4,41,57,17,19,21,NA,NA,"SessionProc","OSPAN",0,1,NA,1,1,1,NA,NA,NA,NA,NA,NA,NA,"MHLMHL",NA,NA,NA,NA,NA,NA,NA,NA,NA,NA,8111,1,"No",NA,NA,NA,NA,NA,NA,"BlockProc",NA,NA,"BlockList1",NA,NA,5,NA,NA,6,NA,"?","?",1,FALSE,10,NA,NA,"MHLMHL",1,NA,NA,"M",FALSE,7,NA,NA,2,NA,NA,NA,NA,NA,NA,NA,"TrialProc",11,NA,NA,NA,NA,NA,NA,NA,NA,NA,NA,NA,"","TrialList",3,NA,NA,2,"?","?",NA,NA,NA,2,NA,NA,"Middle.wav",1,8,7,NA,NA,NA,NA,NA,NA,"501","NO RESPONSE",""
"1981","Tone Span Fall2017_itemScoring",502,1,"<?xml version=""1.0""?>\n<Clock xmlns:dt=""urn:schemas-microsoft-com:datatypes""><Description dt:dt=""string"">E-Prime Primary Realtime Clock</Description><StartTime><Timestamp dt:dt=""int"">0</Timestamp><DateUtc dt:dt=""string"">2017-09-28T14:38:29Z</DateUtc></StartTime><FrequencyChanges><FrequencyChange><Frequency dt:dt=""r8"">2822988</Frequency><Timestamp dt:dt=""r8"">362140773227</Timestamp><Current dt:dt=""r8"">0</Current><DateUtc dt:dt=""string"">2017-09-28T14:38:29Z</DateUtc></FrequencyChange></FrequencyChanges></Clock>\n","Tone Span Fall2017_itemScoring-502-1",59.73,"1.0.0.166",1,1363702153,"Professional","2.0.10.353","2.0.10.353","9/28/17","9/28/17 14:38","9:38:29","2.0.10.248",4,2,78,NA,3,3439.769231,5,1,4,48,65,22,19,24,NA,NA,"SessionProc","OSPAN",1,1,NA,1,1,1,NA,NA,NA,NA,NA,NA,NA,"HLMH",NA,NA,NA,NA,NA,NA,NA,NA,NA,NA,8806,0,"No",NA,NA,NA,NA,NA,NA,"BlockProc",NA,NA,"BlockList1",NA,NA,3,NA,NA,4,NA,"?","?",1,FALSE,8,NA,NA,"HLMH",1,NA,NA,"H",FALSE,27,NA,NA,2,NA,NA,NA,NA,NA,NA,NA,"TrialProc",15,NA,NA,NA,NA,NA,NA,NA,NA,NA,NA,NA,"","TrialList",15,NA,NA,2,"?","?",NA,NA,NA,3,NA,NA,"High.wav",1,8,7,NA,NA,NA,NA,NA,NA,"502","EMAILED "," I would replay the tone pattern in my head over and over again. That made it a lot easier."
"2071","Tone Span Fall2017_itemScoring",503,1,"<?xml version=""1.0""?>\n<Clock xmlns:dt=""urn:schemas-microsoft-com:datatypes""><Description dt:dt=""string"">E-Prime Primary Realtime Clock</Description><StartTime><Timestamp dt:dt=""int"">0</Timestamp><DateUtc dt:dt=""string"">2017-09-28T17:14:00Z</DateUtc></StartTime><FrequencyChanges><FrequencyChange><Frequency dt:dt=""r8"">2822988</Frequency><Timestamp dt:dt=""r8"">388479787293</Timestamp><Current dt:dt=""r8"">0</Current><DateUtc dt:dt=""string"">2017-09-28T17:14:00Z</DateUtc></FrequencyChange></FrequencyChanges></Clock>\n","Tone Span Fall2017_itemScoring-503-1",59.73,"1.0.0.166",1,1932913780,"Professional","2.0.10.353","2.0.10.353","9/28/17","9/28/17 17:14","12:14:00","2.0.10.248",4,0,76,NA,4,2451.513158,5,1,4,46,64,25,18,21,NA,NA,"SessionProc","OSPAN",4,1,NA,1,1,1,NA,NA,NA,NA,NA,NA,NA,"HMLLMHM",NA,NA,NA,NA,NA,NA,NA,NA,NA,NA,4993,0,"No",NA,NA,NA,NA,NA,NA,"BlockProc",NA,NA,"BlockList1",NA,NA,6,NA,NA,7,NA,"?","?",1,TRUE,5,NA,NA,"HMLLMHM",1,NA,NA,"H",TRUE,2,NA,NA,1,NA,NA,NA,NA,NA,NA,NA,"TrialProc",5,NA,NA,NA,NA,NA,NA,NA,NA,NA,NA,NA,"","TrialList",5,NA,NA,1,"?","?",NA,NA,NA,3,NA,NA,"High.wav",1,8,7,NA,NA,NA,NA,NA,NA,"503","NO RESPONSE",""
"2161","Tone Span Fall2017_itemScoring",504,1,"<?xml version=""1.0""?>\n<Clock xmlns:dt=""urn:schemas-microsoft-com:datatypes""><Description dt:dt=""string"">E-Prime Primary Realtime Clock</Description><StartTime><Timestamp dt:dt=""int"">0</Timestamp><DateUtc dt:dt=""string"">2017-09-28T19:29:24Z</DateUtc></StartTime><FrequencyChanges><FrequencyChange><Frequency dt:dt=""r8"">2822988</Frequency><Timestamp dt:dt=""r8"">411410843165</Timestamp><Current dt:dt=""r8"">0</Current><DateUtc dt:dt=""string"">2017-09-28T19:29:24Z</DateUtc></FrequencyChange></FrequencyChanges></Clock>\n","Tone Span Fall2017_itemScoring-504-1",59.73,"1.0.0.166",1,-905835555,"Professional","2.0.10.353","2.0.10.353","9/28/17","9/28/17 19:29","14:29:24","2.0.10.248",4,9,66,NA,12,12847.06061,5,1,4,62,73,24,25,24,NA,NA,"SessionProc","OSPAN",3,1,NA,1,1,1,NA,NA,NA,NA,NA,NA,NA,"MLHMHLM",NA,NA,NA,NA,NA,NA,NA,NA,NA,NA,27556,0,"No",NA,NA,NA,NA,NA,NA,"BlockProc",NA,NA,"BlockList1",NA,NA,6,NA,NA,7,NA,"?","?",1,TRUE,5,NA,NA,"MLHMHLM",1,NA,NA,"M",TRUE,32,NA,NA,1,NA,NA,NA,NA,NA,NA,NA,"TrialProc",14,NA,NA,NA,NA,NA,NA,NA,NA,NA,NA,NA,"","TrialList",6,NA,NA,1,"?","?",NA,NA,NA,2,NA,NA,"Middle.wav",1,8,7,NA,NA,NA,NA,NA,NA,"504","NO RESPONSE",""
"2251","Tone Span Fall2017_itemScoring",505,1,"<?xml version=""1.0""?>\n<Clock xmlns:dt=""urn:schemas-microsoft-com:datatypes""><Description dt:dt=""string"">E-Prime Primary Realtime Clock</Description><StartTime><Timestamp dt:dt=""int"">0</Timestamp><DateUtc dt:dt=""string"">2017-10-02T17:43:32Z</DateUtc></StartTime><FrequencyChanges><FrequencyChange><Frequency dt:dt=""r8"">2822988</Frequency><Timestamp dt:dt=""r8"">1368875927421</Timestamp><Current dt:dt=""r8"">0</Current><DateUtc dt:dt=""string"">2017-10-02T17:43:32Z</DateUtc></FrequencyChange></FrequencyChanges></Clock>\n","Tone Span Fall2017_itemScoring-505-1",59.73,"1.0.0.166",1,-1218067844,"Professional","2.0.10.353","2.0.10.353","10/2/17","10/2/17 17:43","12:43:33","2.0.10.248",4,1,79,NA,1,2499.632911,5,1,4,3,15,4,9,2,NA,NA,"SessionProc","OSPAN",0,1,NA,1,1,1,NA,NA,NA,NA,NA,NA,NA,"HMLLH",NA,NA,NA,NA,NA,NA,NA,NA,NA,NA,6114,0,"No",NA,NA,NA,NA,NA,NA,"BlockProc",NA,NA,"BlockList1",NA,NA,4,NA,NA,5,NA,"?","?",1,FALSE,6,NA,NA,"HMLLH",1,NA,NA,"H",FALSE,25,NA,NA,2,NA,NA,NA,NA,NA,NA,NA,"TrialProc",15,NA,NA,NA,NA,NA,NA,NA,NA,NA,NA,NA,"","TrialList",1,NA,NA,2,"?","?",NA,NA,NA,3,NA,NA,"High.wav",1,8,7,NA,NA,NA,NA,NA,NA,"505","NO RESPONSE",""
"2341","Tone Span Fall2017_itemScoring",506,1,"<?xml version=""1.0""?>\n<Clock xmlns:dt=""urn:schemas-microsoft-com:datatypes""><Description dt:dt=""string"">E-Prime Primary Realtime Clock</Description><StartTime><Timestamp dt:dt=""int"">0</Timestamp><DateUtc dt:dt=""string"">2017-10-02T20:49:19Z</DateUtc></StartTime><FrequencyChanges><FrequencyChange><Frequency dt:dt=""r8"">2822988</Frequency><Timestamp dt:dt=""r8"">1400338092217</Timestamp><Current dt:dt=""r8"">0</Current><DateUtc dt:dt=""string"">2017-10-02T20:49:19Z</DateUtc></FrequencyChange></FrequencyChanges></Clock>\n","Tone Span Fall2017_itemScoring-506-1",59.73,"1.0.0.166",1,179311279,"Professional","2.0.10.353","2.0.10.353","10/2/17","10/2/17 20:49","15:49:19","2.0.10.248",4,6,75,NA,6,2989.813333,5,1,4,51,59,16,25,18,NA,NA,"SessionProc","OSPAN",0,1,NA,1,1,1,NA,NA,NA,NA,NA,NA,NA,"LMH",NA,NA,NA,NA,NA,NA,NA,NA,NA,NA,10492,2,"No",NA,NA,NA,NA,NA,NA,"BlockProc",NA,NA,"BlockList1",NA,NA,2,NA,NA,3,NA,"?","?",1,TRUE,4,NA,NA,"LMH",1,NA,NA,"L",TRUE,14,NA,NA,1,NA,NA,NA,NA,NA,NA,NA,"TrialProc",5,NA,NA,NA,NA,NA,NA,NA,NA,NA,NA,NA,"","TrialList",11,NA,NA,1,"?","?",NA,NA,NA,1,NA,NA,"Low.wav",1,8,7,NA,NA,NA,NA,NA,NA,"506","NO RESPONSE",""
"2431","Tone Span Fall2017_itemScoring",507,1,"<?xml version=""1.0""?>\n<Clock xmlns:dt=""urn:schemas-microsoft-com:datatypes""><Description dt:dt=""string"">E-Prime Primary Realtime Clock</Description><StartTime><Timestamp dt:dt=""int"">0</Timestamp><DateUtc dt:dt=""string"">2017-10-03T21:00:44Z</DateUtc></StartTime><FrequencyChanges><FrequencyChange><Frequency dt:dt=""r8"">2822968</Frequency><Timestamp dt:dt=""r8"">2392007144</Timestamp><Current dt:dt=""r8"">0</Current><DateUtc dt:dt=""string"">2017-10-03T21:00:44Z</DateUtc></FrequencyChange></FrequencyChanges></Clock>\n","Tone Span Fall2017_itemScoring-507-1",59.73,"1.0.0.166",1,-1902420842,"Professional","2.0.10.353","2.0.10.353","10/3/17","10/3/17 21:00","16:00:44","2.0.10.248",4,2,78,NA,2,2430.102564,5,1,4,62,71,25,25,21,NA,NA,"SessionProc","OSPAN",0,1,NA,1,1,1,NA,NA,NA,NA,NA,NA,NA,"HLMLMHH",NA,NA,NA,NA,NA,NA,NA,NA,NA,NA,5731,0,"No",NA,NA,NA,NA,NA,NA,"BlockProc",NA,NA,"BlockList1",NA,NA,6,NA,NA,7,NA,"?","?",1,FALSE,8,NA,NA,"HLMLMHH",1,NA,NA,"H",FALSE,21,NA,NA,2,NA,NA,NA,NA,NA,NA,NA,"TrialProc",2,NA,NA,NA,NA,NA,NA,NA,NA,NA,NA,NA,"","TrialList",4,NA,NA,2,"?","?",NA,NA,NA,3,NA,NA,"High.wav",1,8,7,NA,NA,NA,NA,NA,NA,"507","EMAILED "," I remember I would memorize the tones in a make-shift """"melodic"""" sense, like I would sing it to myself without humming or making any audible sound, essentially just emulating the tones in my mind. I would then use the created melody in my head to determine which tones of HML came at which points in time. I would also move my head in a motion correlating to the pitch of the tone (up/right for H, middle for M, down/left for L) in order to also make use of muscle memory for better memorization/regurgitation of the ex"
"2521","Tone Span Fall2017_itemScoring",508,1,"<?xml version=""1.0""?>\n<Clock xmlns:dt=""urn:schemas-microsoft-com:datatypes""><Description dt:dt=""string"">E-Prime Primary Realtime Clock</Description><StartTime><Timestamp dt:dt=""int"">0</Timestamp><DateUtc dt:dt=""string"">2017-10-05T17:11:26Z</DateUtc></StartTime><FrequencyChanges><FrequencyChange><Frequency dt:dt=""r8"">2727558</Frequency><Timestamp dt:dt=""r8"">203171559550</Timestamp><Current dt:dt=""r8"">0</Current><DateUtc dt:dt=""string"">2017-10-05T17:11:26Z</DateUtc></FrequencyChange></FrequencyChanges></Clock>\n","Tone Span Fall2017_itemScoring-508-1",60.029,"1.0.0.166",1,1308273928,"Professional","2.0.10.242","2.0.10.353","10/5/17","10/5/17 17:11","12:11:26","2.0.10.248",4,4,75,NA,5,4384.84,5,1,4,28,56,21,19,16,NA,NA,"SessionProc","OSPAN",1,1,NA,1,1,1,NA,NA,NA,NA,NA,NA,NA,"MHL",NA,NA,NA,NA,NA,NA,NA,NA,NA,NA,10977,0,"No",NA,NA,NA,NA,NA,NA,"BlockProc",NA,NA,"BlockList1",NA,NA,2,NA,NA,3,NA,"?","?",1,TRUE,2,NA,NA,"MHL",2,NA,NA,"M",TRUE,39,NA,NA,1,NA,NA,NA,NA,NA,NA,NA,"TrialProc",7,NA,NA,NA,NA,NA,NA,NA,NA,NA,NA,NA,"","TrialList",16,NA,NA,1,"?","?",NA,NA,NA,2,NA,NA,"Middle.wav",1,8,7,NA,NA,NA,NA,NA,NA,"508","NO RESPONSE",""
"2611","Tone Span Fall2017_itemScoring",509,1,"<?xml version=""1.0""?>\n<Clock xmlns:dt=""urn:schemas-microsoft-com:datatypes""><Description dt:dt=""string"">E-Prime Primary Realtime Clock</Description><StartTime><Timestamp dt:dt=""int"">0</Timestamp><DateUtc dt:dt=""string"">2017-10-05T19:23:18Z</DateUtc></StartTime><FrequencyChanges><FrequencyChange><Frequency dt:dt=""r8"">2727558</Frequency><Timestamp dt:dt=""r8"">224753669151</Timestamp><Current dt:dt=""r8"">0</Current><DateUtc dt:dt=""string"">2017-10-05T19:23:18Z</DateUtc></FrequencyChange></FrequencyChanges></Clock>\n","Tone Span Fall2017_itemScoring-509-1",60.026,"1.0.0.166",1,1415546201,"Professional","2.0.10.242","2.0.10.353","10/5/17","10/5/17 19:23","14:23:18","2.0.10.248",4,7,74,NA,7,7878.689189,5,1,4,45,63,18,22,23,NA,NA,"SessionProc","OSPAN",0,1,NA,1,1,1,NA,NA,NA,NA,NA,NA,NA,"LMHML",NA,NA,NA,NA,NA,NA,NA,NA,NA,NA,26019,1,"No",NA,NA,NA,NA,NA,NA,"BlockProc",NA,NA,"BlockList1",NA,NA,4,NA,NA,5,NA,"?","?",1,TRUE,5,NA,NA,"LMHML",1,NA,NA,"L",TRUE,12,NA,NA,1,NA,NA,NA,NA,NA,NA,NA,"TrialProc",15,NA,NA,NA,NA,NA,NA,NA,NA,NA,NA,NA,"","TrialList",4,NA,NA,1,"?","?",NA,NA,NA,1,NA,NA,"Low.wav",1,8,7,NA,NA,NA,NA,NA,NA,"509","NO RESPONSE",""
"2701","Tone Span Fall2017_itemScoring",510,1,"<?xml version=""1.0""?>\n<Clock xmlns:dt=""urn:schemas-microsoft-com:datatypes""><Description dt:dt=""string"">E-Prime Primary Realtime Clock</Description><StartTime><Timestamp dt:dt=""int"">0</Timestamp><DateUtc dt:dt=""string"">2017-10-06T13:12:37Z</DateUtc></StartTime><FrequencyChanges><FrequencyChange><Frequency dt:dt=""r8"">2822988</Frequency><Timestamp dt:dt=""r8"">412754168419</Timestamp><Current dt:dt=""r8"">0</Current><DateUtc dt:dt=""string"">2017-10-06T13:12:37Z</DateUtc></FrequencyChange></FrequencyChanges></Clock>\n","Tone Span Fall2017_itemScoring-510-1",59.73,"1.0.0.166",1,437854669,"Professional","2.0.10.353","2.0.10.353","10/6/17","10/6/17 13:12","8:12:38","2.0.10.248",4,2,79,NA,2,3243.291139,5,1,4,23,48,15,18,15,NA,NA,"SessionProc","OSPAN",0,1,NA,1,1,1,NA,NA,NA,NA,NA,NA,NA,"LHMLMHL",NA,NA,NA,NA,NA,NA,NA,NA,NA,NA,7127,0,"No",NA,NA,NA,NA,NA,NA,"BlockProc",NA,NA,"BlockList1",NA,NA,6,NA,NA,7,NA,"?","?",1,TRUE,4,NA,NA,"LHMLMHL",1,NA,NA,"L",TRUE,14,NA,NA,1,NA,NA,NA,NA,NA,NA,NA,"TrialProc",8,NA,NA,NA,NA,NA,NA,NA,NA,NA,NA,NA,"","TrialList",13,NA,NA,1,"?","?",NA,NA,NA,1,NA,NA,"Low.wav",1,8,7,NA,NA,NA,NA,NA,NA,"510","EMAILED "," During this portion of theexperiment I mainly used one strategy. I assigned each tone (H,M,L) a finger on my left hand (index, middle, ring) and tapped out the pattern of tones I recognized with each corresponding finger. I was able to complete the math problems while still remembering and adding to the pattern I was recording in my left hand. I found this strategy to work very well."
"2791","Tone Span Fall2017_itemScoring",511,1,"<?xml version=""1.0""?>\n<Clock xmlns:dt=""urn:schemas-microsoft-com:datatypes""><Description dt:dt=""string"">E-Prime Primary Realtime Clock</Description><StartTime><Timestamp dt:dt=""int"">0</Timestamp><DateUtc dt:dt=""string"">2017-10-06T17:47:46Z</DateUtc></StartTime><FrequencyChanges><FrequencyChange><Frequency dt:dt=""r8"">2822988</Frequency><Timestamp dt:dt=""r8"">459355529746</Timestamp><Current dt:dt=""r8"">0</Current><DateUtc dt:dt=""string"">2017-10-06T17:47:46Z</DateUtc></FrequencyChange></FrequencyChanges></Clock>\n","Tone Span Fall2017_itemScoring-511-1",59.731,"1.0.0.166",1,-205422373,"Professional","2.0.10.353","2.0.10.353","10/6/17","10/6/17 17:47","12:47:47","2.0.10.248",4,2,77,NA,4,4313.493506,5,1,4,61,68,20,25,23,NA,NA,"SessionProc","OSPAN",2,1,NA,1,1,1,NA,NA,NA,NA,NA,NA,NA,"LHM",NA,NA,NA,NA,NA,NA,NA,NA,NA,NA,8308,0,"No",NA,NA,NA,NA,NA,NA,"BlockProc",NA,NA,"BlockList1",NA,NA,2,NA,NA,3,NA,"?","?",1,TRUE,2,NA,NA,"LHM",2,NA,NA,"L",TRUE,38,NA,NA,1,NA,NA,NA,NA,NA,NA,NA,"TrialProc",1,NA,NA,NA,NA,NA,NA,NA,NA,NA,NA,NA,"","TrialList",17,NA,NA,1,"?","?",NA,NA,NA,1,NA,NA,"Low.wav",1,8,7,NA,NA,NA,NA,NA,NA,"511","EMAILED "," As far as remembering the tones, I used my hands to remind myself which direction the tones went. For example: for the higher tones I pointed up, for the middle tones I pointed straight, and for the lower tones I pointed down. When I did the math equations, I was able to remember my hand patterns much better than I could remember the notes alone."
"2881","Tone Span Fall2017_itemScoring",512,1,"<?xml version=""1.0""?>\n<Clock xmlns:dt=""urn:schemas-microsoft-com:datatypes""><Description dt:dt=""string"">E-Prime Primary Realtime Clock</Description><StartTime><Timestamp dt:dt=""int"">0</Timestamp><DateUtc dt:dt=""string"">2017-10-09T17:38:53Z</DateUtc></StartTime><FrequencyChanges><FrequencyChange><Frequency dt:dt=""r8"">2822988</Frequency><Timestamp dt:dt=""r8"">1189394880072</Timestamp><Current dt:dt=""r8"">0</Current><DateUtc dt:dt=""string"">2017-10-09T17:38:53Z</DateUtc></FrequencyChange></FrequencyChanges></Clock>\n","Tone Span Fall2017_itemScoring-512-1",59.73,"1.0.0.166",1,-310500869,"Professional","2.0.10.353","2.0.10.353","10/9/17","10/9/17 17:38","12:38:53","2.0.10.248",4,5,73,NA,8,3351.671233,5,1,4,43,58,18,18,22,NA,NA,"SessionProc","OSPAN",3,1,NA,1,1,1,NA,NA,NA,NA,NA,NA,NA,"HLML",NA,NA,NA,NA,NA,NA,NA,NA,NA,NA,7379,0,"No",NA,NA,NA,NA,NA,NA,"BlockProc",NA,NA,"BlockList1",NA,NA,3,NA,NA,4,NA,"?","?",1,TRUE,2,NA,NA,"HLML",1,NA,NA,"H",TRUE,10,NA,NA,1,NA,NA,NA,NA,NA,NA,NA,"TrialProc",15,NA,NA,NA,NA,NA,NA,NA,NA,NA,NA,NA,"","TrialList",2,NA,NA,1,"?","?",NA,NA,NA,3,NA,NA,"High.wav",1,8,7,NA,NA,NA,NA,NA,NA,"512","EMAILED "," I would try to use as little brain power as possible to solve the math problem then say the answer in my head over and over while also trying to remember the pitch."
"2971","Tone Span Fall2017_itemScoring",513,1,"<?xml version=""1.0""?>\n<Clock xmlns:dt=""urn:schemas-microsoft-com:datatypes""><Description dt:dt=""string"">E-Prime Primary Realtime Clock</Description><StartTime><Timestamp dt:dt=""int"">0</Timestamp><DateUtc dt:dt=""string"">2017-10-09T20:39:43Z</DateUtc></StartTime><FrequencyChanges><FrequencyChange><Frequency dt:dt=""r8"">2727558</Frequency><Timestamp dt:dt=""r8"">1179904191942</Timestamp><Current dt:dt=""r8"">0</Current><DateUtc dt:dt=""string"">2017-10-09T20:39:43Z</DateUtc></FrequencyChange></FrequencyChanges></Clock>\n","Tone Span Fall2017_itemScoring-513-1",60.028,"1.0.0.166",1,-1211637260,"Professional","2.0.10.242","2.0.10.353","10/9/17","10/9/17 20:39","15:39:43","2.0.10.248",4,4,77,NA,4,5027.818182,5,1,4,69,73,23,25,25,NA,NA,"SessionProc","OSPAN",0,1,NA,1,1,1,NA,NA,NA,NA,NA,NA,NA,"MHLLH",NA,NA,NA,NA,NA,NA,NA,NA,NA,NA,12875,0,"No",NA,NA,NA,NA,NA,NA,"BlockProc",NA,NA,"BlockList1",NA,NA,4,NA,NA,5,NA,"?","?",1,FALSE,8,NA,NA,"MHLLH",1,NA,NA,"M",FALSE,7,NA,NA,2,NA,NA,NA,NA,NA,NA,NA,"TrialProc",12,NA,NA,NA,NA,NA,NA,NA,NA,NA,NA,NA,"","TrialList",14,NA,NA,2,"?","?",NA,NA,NA,2,NA,NA,"Middle.wav",1,8,7,NA,NA,NA,NA,NA,NA,"513","NO RESPONSE",""
"3061","Tone Span Fall2017_itemScoring",514,1,"<?xml version=""1.0""?>\n<Clock xmlns:dt=""urn:schemas-microsoft-com:datatypes""><Description dt:dt=""string"">E-Prime Primary Realtime Clock</Description><StartTime><Timestamp dt:dt=""int"">0</Timestamp><DateUtc dt:dt=""string"">2017-10-09T23:51:39Z</DateUtc></StartTime><FrequencyChanges><FrequencyChange><Frequency dt:dt=""r8"">2822988</Frequency><Timestamp dt:dt=""r8"">1252520904683</Timestamp><Current dt:dt=""r8"">0</Current><DateUtc dt:dt=""string"">2017-10-09T23:51:39Z</DateUtc></FrequencyChange></FrequencyChanges></Clock>\n","Tone Span Fall2017_itemScoring-514-1",59.73,"1.0.0.166",1,-1608993230,"Professional","2.0.10.353","2.0.10.353","10/9/17","","18:51:39","2.0.10.248",4,5,74,NA,6,2257.567568,5,1,4,56,63,16,22,25,NA,NA,"SessionProc","OSPAN",1,1,NA,1,1,1,NA,NA,NA,NA,NA,NA,NA,"LMHL",NA,NA,NA,NA,NA,NA,NA,NA,NA,NA,5844,0,"No",NA,NA,NA,NA,NA,NA,"BlockProc",NA,NA,"BlockList1",NA,NA,3,NA,NA,4,NA,"?","?",1,FALSE,10,NA,NA,"LMHL",1,NA,NA,"L",FALSE,19,NA,NA,2,NA,NA,NA,NA,NA,NA,NA,"TrialProc",15,NA,NA,NA,NA,NA,NA,NA,NA,NA,NA,NA,"","TrialList",4,NA,NA,2,"?","?",NA,NA,NA,1,NA,NA,"Low.wav",1,8,7,NA,NA,NA,NA,NA,NA,"514","EMAILED "," The main strategy I remember using was to remember each note and treat it like i was creating a melody note by note and just adding onto the melody with each question."
"3151","Tone Span Fall2017_itemScoring",515,1,"<?xml version=""1.0""?>\n<Clock xmlns:dt=""urn:schemas-microsoft-com:datatypes""><Description dt:dt=""string"">E-Prime Primary Realtime Clock</Description><StartTime><Timestamp dt:dt=""int"">0</Timestamp><DateUtc dt:dt=""string"">2017-10-09T23:54:03Z</DateUtc></StartTime><FrequencyChanges><FrequencyChange><Frequency dt:dt=""r8"">2727558</Frequency><Timestamp dt:dt=""r8"">1211707297702</Timestamp><Current dt:dt=""r8"">0</Current><DateUtc dt:dt=""string"">2017-10-09T23:54:03Z</DateUtc></FrequencyChange></FrequencyChanges></Clock>\n","Tone Span Fall2017_itemScoring-515-1",60.032,"1.0.0.166",1,527035636,"Professional","2.0.10.242","2.0.10.353","10/9/17","","18:54:03","2.0.10.248",4,3,76,NA,5,4285.263158,5,1,4,43,62,20,23,19,NA,NA,"SessionProc","OSPAN",2,1,NA,1,1,1,NA,NA,NA,NA,NA,NA,NA,"HLM",NA,NA,NA,NA,NA,NA,NA,NA,NA,NA,7952,0,"No",NA,NA,NA,NA,NA,NA,"BlockProc",NA,NA,"BlockList1",NA,NA,2,NA,NA,3,NA,"?","?",1,FALSE,6,NA,NA,"HLM",1,NA,NA,"H",FALSE,17,NA,NA,2,NA,NA,NA,NA,NA,NA,NA,"TrialProc",9,NA,NA,NA,NA,NA,NA,NA,NA,NA,NA,NA,"","TrialList",16,NA,NA,2,"?","?",NA,NA,NA,3,NA,NA,"High.wav",1,8,7,NA,NA,NA,NA,NA,NA,"515","NO RESPONSE",""
"3241","Tone Span Fall2017_itemScoring",516,1,"<?xml version=""1.0""?>\n<Clock xmlns:dt=""urn:schemas-microsoft-com:datatypes""><Description dt:dt=""string"">E-Prime Primary Realtime Clock</Description><StartTime><Timestamp dt:dt=""int"">0</Timestamp><DateUtc dt:dt=""string"">2017-10-10T17:08:08Z</DateUtc></StartTime><FrequencyChanges><FrequencyChange><Frequency dt:dt=""r8"">2823007</Frequency><Timestamp dt:dt=""r8"">244836914385</Timestamp><Current dt:dt=""r8"">0</Current><DateUtc dt:dt=""string"">2017-10-10T17:08:08Z</DateUtc></FrequencyChange></FrequencyChanges></Clock>\n","Tone Span Fall2017_itemScoring-516-1",62.496,"1.0.0.174",1,23961195,"Professional","2.0.10.353","2.0.10.353","10/10/17","10/10/17 17:08","12:08:08","2.0.10.248",4,4,76,NA,5,3821.552632,5,1,4,47,64,20,20,24,NA,NA,"SessionProc","OSPAN",1,1,NA,1,1,1,NA,NA,NA,NA,NA,NA,NA,"MHL",NA,NA,NA,NA,NA,NA,NA,NA,NA,NA,17783,0,"No",NA,NA,NA,NA,NA,NA,"BlockProc",NA,NA,"BlockList1",NA,NA,2,NA,NA,3,NA,"?","?",1,TRUE,1,NA,NA,"MHL",1,NA,NA,"M",TRUE,6,NA,NA,1,NA,NA,NA,NA,NA,NA,NA,"TrialProc",6,NA,NA,NA,NA,NA,NA,NA,NA,NA,NA,NA,"","TrialList",5,NA,NA,1,"?","?",NA,NA,NA,2,NA,NA,"Middle.wav",1,8,7,NA,NA,NA,NA,NA,NA,"516","EMAILED "," Well that's incredibly unfortunate! My response was something along the lines of: I assigned each of my fingers on my left hand a pitch and tried to recall the order in which I tapped them after answering the math problems. I also tried recognizing patterns within the organization of pitches, as in it follows an ascending to depending pattern or whatever else."
"3331","Tone Span Fall2017_itemScoring",517,1,"<?xml version=""1.0""?>\n<Clock xmlns:dt=""urn:schemas-microsoft-com:datatypes""><Description dt:dt=""string"">E-Prime Primary Realtime Clock</Description><StartTime><Timestamp dt:dt=""int"">0</Timestamp><DateUtc dt:dt=""string"">2017-10-10T16:59:44Z</DateUtc></StartTime><FrequencyChanges><FrequencyChange><Frequency dt:dt=""r8"">2822988</Frequency><Timestamp dt:dt=""r8"">1426620536160</Timestamp><Current dt:dt=""r8"">0</Current><DateUtc dt:dt=""string"">2017-10-10T16:59:44Z</DateUtc></FrequencyChange></FrequencyChanges></Clock>\n","Tone Span Fall2017_itemScoring-517-1",59.731,"1.0.0.166",1,691576669,"Professional","2.0.10.353","2.0.10.353","10/10/17","10/10/17 16:59","11:59:44","2.0.10.248",4,1,80,NA,1,1984.1,5,1,4,55,68,23,20,25,NA,NA,"SessionProc","OSPAN",0,1,NA,1,1,1,NA,NA,NA,NA,NA,NA,NA,"HMLHML",NA,NA,NA,NA,NA,NA,NA,NA,NA,NA,4611,0,"No",NA,NA,NA,NA,NA,NA,"BlockProc",NA,NA,"BlockList1",NA,NA,5,NA,NA,6,NA,"?","?",1,FALSE,10,NA,NA,"HMLHML",1,NA,NA,"H",FALSE,29,NA,NA,2,NA,NA,NA,NA,NA,NA,NA,"TrialProc",12,NA,NA,NA,NA,NA,NA,NA,NA,NA,NA,NA,"","TrialList",18,NA,NA,2,"?","?",NA,NA,NA,3,NA,NA,"High.wav",1,8,7,NA,NA,NA,NA,NA,NA,"517","NO RESPONSE",""
"3421","Tone Span Fall2017_itemScoring",518,1,"<?xml version=""1.0""?>\n<Clock xmlns:dt=""urn:schemas-microsoft-com:datatypes""><Description dt:dt=""string"">E-Prime Primary Realtime Clock</Description><StartTime><Timestamp dt:dt=""int"">0</Timestamp><DateUtc dt:dt=""string"">2017-10-10T20:32:03Z</DateUtc></StartTime><FrequencyChanges><FrequencyChange><Frequency dt:dt=""r8"">2822988</Frequency><Timestamp dt:dt=""r8"">1462579946793</Timestamp><Current dt:dt=""r8"">0</Current><DateUtc dt:dt=""string"">2017-10-10T20:32:03Z</DateUtc></FrequencyChange></FrequencyChanges></Clock>\n","Tone Span Fall2017_itemScoring-518-1",59.731,"1.0.0.166",1,-2003365087,"Professional","2.0.10.353","2.0.10.353","10/10/17","10/10/17 20:32","15:32:03","2.0.10.248",4,2,78,NA,2,5932.512821,5,1,4,39,65,18,23,24,NA,NA,"SessionProc","OSPAN",0,1,NA,1,1,1,NA,NA,NA,NA,NA,NA,NA,"LHMM",NA,NA,NA,NA,NA,NA,NA,NA,NA,NA,23714,0,"No",NA,NA,NA,NA,NA,NA,"BlockProc",NA,NA,"BlockList1",NA,NA,3,NA,NA,4,NA,"?","?",1,FALSE,8,NA,NA,"LHMM",1,NA,NA,"L",FALSE,28,NA,NA,2,NA,NA,NA,NA,NA,NA,NA,"TrialProc",7,NA,NA,NA,NA,NA,NA,NA,NA,NA,NA,NA,"","TrialList",18,NA,NA,2,"?","?",NA,NA,NA,1,NA,NA,"Low.wav",1,8,7,NA,NA,NA,NA,NA,NA,"518","NO RESPONSE",""
"3511","Tone Span Fall2017_itemScoring",519,1,"<?xml version=""1.0""?>\n<Clock xmlns:dt=""urn:schemas-microsoft-com:datatypes""><Description dt:dt=""string"">E-Prime Primary Realtime Clock</Description><StartTime><Timestamp dt:dt=""int"">0</Timestamp><DateUtc dt:dt=""string"">2017-10-10T20:37:08Z</DateUtc></StartTime><FrequencyChanges><FrequencyChange><Frequency dt:dt=""r8"">2823007</Frequency><Timestamp dt:dt=""r8"">280235236580</Timestamp><Current dt:dt=""r8"">0</Current><DateUtc dt:dt=""string"">2017-10-10T20:37:08Z</DateUtc></FrequencyChange></FrequencyChanges></Clock>\n","Tone Span Fall2017_itemScoring-519-1",62.497,"1.0.0.174",1,1062545491,"Professional","2.0.10.353","2.0.10.353","10/10/17","10/10/17 20:37","15:37:08","2.0.10.248",4,1,79,NA,2,4090.113924,5,1,4,52,66,17,25,24,NA,NA,"SessionProc","OSPAN",1,1,NA,1,1,1,NA,NA,NA,NA,NA,NA,NA,"HML",NA,NA,NA,NA,NA,NA,NA,NA,NA,NA,11715,0,"No",NA,NA,NA,NA,NA,NA,"BlockProc",NA,NA,"BlockList1",NA,NA,2,NA,NA,3,NA,"?","?",1,FALSE,10,NA,NA,"HML",1,NA,NA,"H",FALSE,22,NA,NA,2,NA,NA,NA,NA,NA,NA,NA,"TrialProc",11,NA,NA,NA,NA,NA,NA,NA,NA,NA,NA,NA,"","TrialList",10,NA,NA,2,"?","?",NA,NA,NA,3,NA,NA,"High.wav",1,8,7,NA,NA,NA,NA,NA,NA,"519","NO RESPONSE",""
"3601","Tone Span Fall2017_itemScoring",520,1,"<?xml version=""1.0""?>\n<Clock xmlns:dt=""urn:schemas-microsoft-com:datatypes""><Description dt:dt=""string"">E-Prime Primary Realtime Clock</Description><StartTime><Timestamp dt:dt=""int"">0</Timestamp><DateUtc dt:dt=""string"">2017-10-10T20:41:05Z</DateUtc></StartTime><FrequencyChanges><FrequencyChange><Frequency dt:dt=""r8"">2727558</Frequency><Timestamp dt:dt=""r8"">1415786027661</Timestamp><Current dt:dt=""r8"">0</Current><DateUtc dt:dt=""string"">2017-10-10T20:41:05Z</DateUtc></FrequencyChange></FrequencyChanges></Clock>\n","Tone Span Fall2017_itemScoring-520-1",60.029,"1.0.0.172",1,-1552626289,"","2.0.10.242","2.0.10.242","10/10/17","10/10/17 20:41","15:41:05","2.0.10.147",4,5,74,NA,7,3312.5,5,1,4,48,67,21,22,24,NA,NA,"SessionProc","OSPAN",2,1,NA,1,1,1,NA,NA,NA,NA,NA,NA,NA,"MLH",NA,NA,NA,NA,NA,NA,NA,NA,NA,NA,7149,1,"No",NA,NA,NA,NA,NA,NA,"BlockProc",NA,NA,"BlockList1",NA,NA,2,NA,NA,3,NA,"?","?",1,TRUE,2,NA,NA,"MLH",1,NA,NA,"M",TRUE,37,NA,NA,1,NA,NA,NA,NA,NA,NA,NA,"TrialProc",2,NA,NA,NA,NA,NA,NA,NA,NA,NA,NA,NA,"","TrialList",1,NA,NA,1,"?","?",NA,NA,NA,2,NA,NA,"Middle.wav",1,8,7,NA,NA,NA,NA,NA,NA,"520","NO RESPONSE",""
"3691","Tone Span Fall2017_itemScoring",521,1,"<?xml version=""1.0""?>\n<Clock xmlns:dt=""urn:schemas-microsoft-com:datatypes""><Description dt:dt=""string"">E-Prime Primary Realtime Clock</Description><StartTime><Timestamp dt:dt=""int"">0</Timestamp><DateUtc dt:dt=""string"">2017-10-11T17:43:19Z</DateUtc></StartTime><FrequencyChanges><FrequencyChange><Frequency dt:dt=""r8"">2822978</Frequency><Timestamp dt:dt=""r8"">2959752674</Timestamp><Current dt:dt=""r8"">0</Current><DateUtc dt:dt=""string"">2017-10-11T17:43:19Z</DateUtc></FrequencyChange></FrequencyChanges></Clock>\n","Tone Span Fall2017_itemScoring-521-1",59.73,"1.0.0.166",1,-1334642175,"Professional","2.0.10.353","2.0.10.353","10/11/17","10/11/17 17:43","12:43:19","2.0.10.248",4,5,74,NA,6,5621.459459,5,1,4,22,60,20,19,21,NA,NA,"SessionProc","OSPAN",1,1,NA,1,1,1,NA,NA,NA,NA,NA,NA,NA,"MLH",NA,NA,NA,NA,NA,NA,NA,NA,NA,NA,15406,0,"No",NA,NA,NA,NA,NA,NA,"BlockProc",NA,NA,"BlockList1",NA,NA,2,NA,NA,3,NA,"?","?",1,FALSE,6,NA,NA,"MLH",1,NA,NA,"M",FALSE,37,NA,NA,2,NA,NA,NA,NA,NA,NA,NA,"TrialProc",17,NA,NA,NA,NA,NA,NA,NA,NA,NA,NA,NA,"","TrialList",16,NA,NA,2,"?","?",NA,NA,NA,2,NA,NA,"Middle.wav",1,8,7,NA,NA,NA,NA,NA,NA,"521","NO RESPONSE",""
"3781","Tone Span Fall2017_itemScoring",522,1,"<?xml version=""1.0""?>\n<Clock xmlns:dt=""urn:schemas-microsoft-com:datatypes""><Description dt:dt=""string"">E-Prime Primary Realtime Clock</Description><StartTime><Timestamp dt:dt=""int"">0</Timestamp><DateUtc dt:dt=""string"">2017-10-11T17:42:38Z</DateUtc></StartTime><FrequencyChanges><FrequencyChange><Frequency dt:dt=""r8"">2727548</Frequency><Timestamp dt:dt=""r8"">2177978139</Timestamp><Current dt:dt=""r8"">0</Current><DateUtc dt:dt=""string"">2017-10-11T17:42:38Z</DateUtc></FrequencyChange></FrequencyChanges></Clock>\n","Tone Span Fall2017_itemScoring-522-1",60.03,"1.0.0.172",1,-2116448654,"","2.0.10.242","2.0.10.242","10/11/17","10/11/17 17:42","12:42:38","2.0.10.147",4,2,78,NA,3,2810.910256,5,1,4,63,69,25,19,25,NA,NA,"SessionProc","OSPAN",1,1,NA,1,1,1,NA,NA,NA,NA,NA,NA,NA,"HMLHLMH",NA,NA,NA,NA,NA,NA,NA,NA,NA,NA,6745,0,"No",NA,NA,NA,NA,NA,NA,"BlockProc",NA,NA,"BlockList1",NA,NA,6,NA,NA,7,NA,"?","?",1,TRUE,2,NA,NA,"HMLHLMH",1,NA,NA,"H",TRUE,22,NA,NA,1,NA,NA,NA,NA,NA,NA,NA,"TrialProc",11,NA,NA,NA,NA,NA,NA,NA,NA,NA,NA,NA,"","TrialList",5,NA,NA,1,"?","?",NA,NA,NA,3,NA,NA,"High.wav",1,8,7,NA,NA,NA,NA,NA,NA,"522","NO RESPONSE",""
"3871","Tone Span Fall2017_itemScoring",523,1,"<?xml version=""1.0""?>\n<Clock xmlns:dt=""urn:schemas-microsoft-com:datatypes""><Description dt:dt=""string"">E-Prime Primary Realtime Clock</Description><StartTime><Timestamp dt:dt=""int"">0</Timestamp><DateUtc dt:dt=""string"">2017-10-11T19:41:32Z</DateUtc></StartTime><FrequencyChanges><FrequencyChange><Frequency dt:dt=""r8"">2822978</Frequency><Timestamp dt:dt=""r8"">22980726741</Timestamp><Current dt:dt=""r8"">0</Current><DateUtc dt:dt=""string"">2017-10-11T19:41:32Z</DateUtc></FrequencyChange></FrequencyChanges></Clock>\n","Tone Span Fall2017_itemScoring-523-1",59.73,"1.0.0.166",1,1506073077,"Professional","2.0.10.353","2.0.10.353","10/11/17","10/11/17 19:41","14:41:32","2.0.10.248",4,5,74,NA,5,2545.702703,5,1,4,43,61,18,20,23,NA,NA,"SessionProc","OSPAN",0,1,NA,1,1,1,NA,NA,NA,NA,NA,NA,NA,"MLHMHLH",NA,NA,NA,NA,NA,NA,NA,NA,NA,NA,6780,1,"No",NA,NA,NA,NA,NA,NA,"BlockProc",NA,NA,"BlockList1",NA,NA,6,NA,NA,7,NA,"?","?",1,FALSE,9,NA,NA,"MLHMHLH",1,NA,NA,"M",FALSE,37,NA,NA,2,NA,NA,NA,NA,NA,NA,NA,"TrialProc",15,NA,NA,NA,NA,NA,NA,NA,NA,NA,NA,NA,"","TrialList",1,NA,NA,2,"?","?",NA,NA,NA,2,NA,NA,"Middle.wav",1,8,7,NA,NA,NA,NA,NA,NA,"523","NO RESPONSE",""
"3961","Tone Span Fall2017_itemScoring",524,1,"<?xml version=""1.0""?>\n<Clock xmlns:dt=""urn:schemas-microsoft-com:datatypes""><Description dt:dt=""string"">E-Prime Primary Realtime Clock</Description><StartTime><Timestamp dt:dt=""int"">0</Timestamp><DateUtc dt:dt=""string"">2017-10-11T19:48:19Z</DateUtc></StartTime><FrequencyChanges><FrequencyChange><Frequency dt:dt=""r8"">2823007</Frequency><Timestamp dt:dt=""r8"">23605520344</Timestamp><Current dt:dt=""r8"">0</Current><DateUtc dt:dt=""string"">2017-10-11T19:48:19Z</DateUtc></FrequencyChange></FrequencyChanges></Clock>\n","Tone Span Fall2017_itemScoring-524-1",62.491,"1.0.0.174",1,2130865911,"Professional","2.0.10.353","2.0.10.353","10/11/17","10/11/17 19:48","14:48:19","2.0.10.248",4,2,79,NA,2,5147.873418,5,1,4,26,50,10,19,21,NA,NA,"SessionProc","OSPAN",0,1,NA,1,1,1,NA,NA,NA,NA,NA,NA,NA,"HLMLH",NA,NA,NA,NA,NA,NA,NA,NA,NA,NA,14777,0,"No",NA,NA,NA,NA,NA,NA,"BlockProc",NA,NA,"BlockList1",NA,NA,4,NA,NA,5,NA,"?","?",1,FALSE,8,NA,NA,"HLMLH",1,NA,NA,"H",FALSE,21,NA,NA,2,NA,NA,NA,NA,NA,NA,NA,"TrialProc",15,NA,NA,NA,NA,NA,NA,NA,NA,NA,NA,NA,"","TrialList",3,NA,NA,2,"?","?",NA,NA,NA,3,NA,NA,"High.wav",1,8,7,NA,NA,NA,NA,NA,NA,"524","NO RESPONSE",""
"4051","Tone Span Fall2017_itemScoring",525,1,"<?xml version=""1.0""?>\n<Clock xmlns:dt=""urn:schemas-microsoft-com:datatypes""><Description dt:dt=""string"">E-Prime Primary Realtime Clock</Description><StartTime><Timestamp dt:dt=""int"">0</Timestamp><DateUtc dt:dt=""string"">2017-10-11T19:43:44Z</DateUtc></StartTime><FrequencyChanges><FrequencyChange><Frequency dt:dt=""r8"">2727548</Frequency><Timestamp dt:dt=""r8"">21997143856</Timestamp><Current dt:dt=""r8"">0</Current><DateUtc dt:dt=""string"">2017-10-11T19:43:44Z</DateUtc></FrequencyChange></FrequencyChanges></Clock>\n","Tone Span Fall2017_itemScoring-525-1",60.026,"1.0.0.172",1,522828390,"","2.0.10.242","2.0.10.242","10/11/17","10/11/17 19:43","14:43:45","2.0.10.147",4,2,77,NA,3,2179.714286,5,1,4,49,68,20,24,24,NA,NA,"SessionProc","OSPAN",1,1,NA,1,1,1,NA,NA,NA,NA,NA,NA,NA,"MLHLMH",NA,NA,NA,NA,NA,NA,NA,NA,NA,NA,5768,1,"No",NA,NA,NA,NA,NA,NA,"BlockProc",NA,NA,"BlockList1",NA,NA,5,NA,NA,6,NA,"?","?",1,FALSE,7,NA,NA,"MLHLMH",1,NA,NA,"M",FALSE,28,NA,NA,2,NA,NA,NA,NA,NA,NA,NA,"TrialProc",6,NA,NA,NA,NA,NA,NA,NA,NA,NA,NA,NA,"","TrialList",15,NA,NA,2,"?","?",NA,NA,NA,2,NA,NA,"Middle.wav",1,8,7,NA,NA,NA,NA,NA,NA,"525","NO RESPONSE",""
"4141","Tone Span Fall2017_itemScoring",526,1,"<?xml version=""1.0""?>\n<Clock xmlns:dt=""urn:schemas-microsoft-com:datatypes""><Description dt:dt=""string"">E-Prime Primary Realtime Clock</Description><StartTime><Timestamp dt:dt=""int"">0</Timestamp><DateUtc dt:dt=""string"">2017-10-12T14:36:18Z</DateUtc></StartTime><FrequencyChanges><FrequencyChange><Frequency dt:dt=""r8"">2727578</Frequency><Timestamp dt:dt=""r8"">60883106902</Timestamp><Current dt:dt=""r8"">0</Current><DateUtc dt:dt=""string"">2017-10-12T14:36:18Z</DateUtc></FrequencyChange></FrequencyChanges></Clock>\n","Tone Span Fall2017_itemScoring-526-1",60.026,"1.0.0.172",1,754111021,"","2.0.10.242","2.0.10.242","10/12/17","10/12/17 14:36","9:36:18","2.0.10.147",4,11,69,NA,11,2138.405797,5,1,4,19,57,17,18,22,NA,NA,"SessionProc","OSPAN",0,1,NA,1,1,1,NA,NA,NA,NA,NA,NA,NA,"LMHHLM",NA,NA,NA,NA,NA,NA,NA,NA,NA,NA,17644,0,"No",NA,NA,NA,NA,NA,NA,"BlockProc",NA,NA,"BlockList1",NA,NA,5,NA,NA,6,NA,"?","?",1,TRUE,2,NA,NA,"LMHHLM",2,NA,NA,"L",TRUE,47,NA,NA,1,NA,NA,NA,NA,NA,NA,NA,"TrialProc",9,NA,NA,NA,NA,NA,NA,NA,NA,NA,NA,NA,"","TrialList",9,NA,NA,1,"?","?",NA,NA,NA,1,NA,NA,"Low.wav",1,8,7,NA,NA,NA,NA,NA,NA,"526","NO RESPONSE",""
"4231","Tone Span Fall2017_itemScoring",527,1,"<?xml version=""1.0""?>\n<Clock xmlns:dt=""urn:schemas-microsoft-com:datatypes""><Description dt:dt=""string"">E-Prime Primary Realtime Clock</Description><StartTime><Timestamp dt:dt=""int"">0</Timestamp><DateUtc dt:dt=""string"">2017-10-12T17:00:29Z</DateUtc></StartTime><FrequencyChanges><FrequencyChange><Frequency dt:dt=""r8"">2823007</Frequency><Timestamp dt:dt=""r8"">26310180116</Timestamp><Current dt:dt=""r8"">0</Current><DateUtc dt:dt=""string"">2017-10-12T17:00:29Z</DateUtc></FrequencyChange></FrequencyChanges></Clock>\n","Tone Span Fall2017_itemScoring-527-1",59.731,"1.0.0.166",1,540558273,"Professional","2.0.10.353","2.0.10.353","10/12/17","10/12/17 17:00","12:00:29","2.0.10.248",4,8,71,NA,9,2634.323944,5,1,4,29,49,17,10,22,NA,NA,"SessionProc","OSPAN",1,1,NA,1,1,1,NA,NA,NA,NA,NA,NA,NA,"MLHHMLH",NA,NA,NA,NA,NA,NA,NA,NA,NA,NA,6652,1,"No",NA,NA,NA,NA,NA,NA,"BlockProc",NA,NA,"BlockList1",NA,NA,6,NA,NA,7,NA,"?","?",1,TRUE,4,NA,NA,"MLHHMLH",1,NA,NA,"M",TRUE,26,NA,NA,1,NA,NA,NA,NA,NA,NA,NA,"TrialProc",3,NA,NA,NA,NA,NA,NA,NA,NA,NA,NA,NA,"","TrialList",2,NA,NA,1,"?","?",NA,NA,NA,2,NA,NA,"Middle.wav",1,8,7,NA,NA,NA,NA,NA,NA,"527","NO RESPONSE",""
"4321","Tone Span Fall2017_itemScoring",528,1,"<?xml version=""1.0""?>\n<Clock xmlns:dt=""urn:schemas-microsoft-com:datatypes""><Description dt:dt=""string"">E-Prime Primary Realtime Clock</Description><StartTime><Timestamp dt:dt=""int"">0</Timestamp><DateUtc dt:dt=""string"">2017-10-12T17:05:35Z</DateUtc></StartTime><FrequencyChanges><FrequencyChange><Frequency dt:dt=""r8"">2727578</Frequency><Timestamp dt:dt=""r8"">85311758109</Timestamp><Current dt:dt=""r8"">0</Current><DateUtc dt:dt=""string"">2017-10-12T17:05:35Z</DateUtc></FrequencyChange></FrequencyChanges></Clock>\n","Tone Span Fall2017_itemScoring-528-1",60.032,"1.0.0.172",1,-587386237,"","2.0.10.242","2.0.10.242","10/12/17","10/12/17 17:05","12:05:35","2.0.10.147",4,2,77,NA,3,3431.857143,5,1,4,44,64,23,18,23,NA,NA,"SessionProc","OSPAN",1,1,NA,1,1,1,NA,NA,NA,NA,NA,NA,NA,"MLHM",NA,NA,NA,NA,NA,NA,NA,NA,NA,NA,9738,0,"No",NA,NA,NA,NA,NA,NA,"BlockProc",NA,NA,"BlockList1",NA,NA,3,NA,NA,4,NA,"?","?",1,FALSE,10,NA,NA,"MLHM",1,NA,NA,"M",FALSE,30,NA,NA,2,NA,NA,NA,NA,NA,NA,NA,"TrialProc",11,NA,NA,NA,NA,NA,NA,NA,NA,NA,NA,NA,"","TrialList",14,NA,NA,2,"?","?",NA,NA,NA,2,NA,NA,"Middle.wav",1,8,7,NA,NA,NA,NA,NA,NA,"528","NO RESPONSE",""
"4411","Tone Span Fall2017_itemScoring",529,1,"<?xml version=""1.0""?>\n<Clock xmlns:dt=""urn:schemas-microsoft-com:datatypes""><Description dt:dt=""string"">E-Prime Primary Realtime Clock</Description><StartTime><Timestamp dt:dt=""int"">0</Timestamp><DateUtc dt:dt=""string"">2017-10-12T19:05:50Z</DateUtc></StartTime><FrequencyChanges><FrequencyChange><Frequency dt:dt=""r8"">2823007</Frequency><Timestamp dt:dt=""r8"">47540576287</Timestamp><Current dt:dt=""r8"">0</Current><DateUtc dt:dt=""string"">2017-10-12T19:05:50Z</DateUtc></FrequencyChange></FrequencyChanges></Clock>\n","Tone Span Fall2017_itemScoring-529-1",59.731,"1.0.0.166",1,296117802,"Professional","2.0.10.353","2.0.10.353","10/12/17","10/12/17 19:05","14:05:50","2.0.10.248",4,6,73,NA,8,2122,5,1,4,28,57,18,17,22,NA,NA,"SessionProc","OSPAN",2,1,NA,1,1,1,NA,NA,NA,NA,NA,NA,NA,"HLMHM",NA,NA,NA,NA,NA,NA,NA,NA,NA,NA,4417,1,"No",NA,NA,NA,NA,NA,NA,"BlockProc",NA,NA,"BlockList1",NA,NA,4,NA,NA,5,NA,"?","?",1,FALSE,10,NA,NA,"HLMHM",1,NA,NA,"H",FALSE,20,NA,NA,2,NA,NA,NA,NA,NA,NA,NA,"TrialProc",17,NA,NA,NA,NA,NA,NA,NA,NA,NA,NA,NA,"","TrialList",15,NA,NA,2,"?","?",NA,NA,NA,3,NA,NA,"High.wav",1,8,7,NA,NA,NA,NA,NA,NA,"529","NO RESPONSE",""
"4501","Tone Span Fall2017_itemScoring",530,1,"<?xml version=""1.0""?>\n<Clock xmlns:dt=""urn:schemas-microsoft-com:datatypes""><Description dt:dt=""string"">E-Prime Primary Realtime Clock</Description><StartTime><Timestamp dt:dt=""int"">0</Timestamp><DateUtc dt:dt=""string"">2017-10-12T21:12:38Z</DateUtc></StartTime><FrequencyChanges><FrequencyChange><Frequency dt:dt=""r8"">2823007</Frequency><Timestamp dt:dt=""r8"">69016969919</Timestamp><Current dt:dt=""r8"">0</Current><DateUtc dt:dt=""string"">2017-10-12T21:12:38Z</DateUtc></FrequencyChange></FrequencyChanges></Clock>\n","Tone Span Fall2017_itemScoring-530-1",59.731,"1.0.0.166",1,297676552,"Professional","2.0.10.353","2.0.10.353","10/12/17","10/12/17 21:12","16:12:38","2.0.10.248",4,2,78,NA,2,2687.269231,5,1,4,56,69,21,23,25,NA,NA,"SessionProc","OSPAN",0,1,NA,1,1,1,NA,NA,NA,NA,NA,NA,NA,"MHLHLML",NA,NA,NA,NA,NA,NA,NA,NA,NA,NA,7708,0,"No",NA,NA,NA,NA,NA,NA,"BlockProc",NA,NA,"BlockList1",NA,NA,6,NA,NA,7,NA,"?","?",1,FALSE,7,NA,NA,"MHLHLML",1,NA,NA,"M",FALSE,16,NA,NA,2,NA,NA,NA,NA,NA,NA,NA,"TrialProc",3,NA,NA,NA,NA,NA,NA,NA,NA,NA,NA,NA,"","TrialList",13,NA,NA,2,"?","?",NA,NA,NA,2,NA,NA,"Middle.wav",1,8,7,NA,NA,NA,NA,NA,NA,"530","NO RESPONSE",""
"4591","Tone Span Fall2017_itemScoring",531,1,"<?xml version=""1.0""?>\n<Clock xmlns:dt=""urn:schemas-microsoft-com:datatypes""><Description dt:dt=""string"">E-Prime Primary Realtime Clock</Description><StartTime><Timestamp dt:dt=""int"">0</Timestamp><DateUtc dt:dt=""string"">2017-10-16T19:39:01Z</DateUtc></StartTime><FrequencyChanges><FrequencyChange><Frequency dt:dt=""r8"">2823007</Frequency><Timestamp dt:dt=""r8"">1028564666218</Timestamp><Current dt:dt=""r8"">0</Current><DateUtc dt:dt=""string"">2017-10-16T19:39:01Z</DateUtc></FrequencyChange></FrequencyChanges></Clock>\n","Tone Span Fall2017_itemScoring-531-1",59.73,"1.0.0.166",1,2068034812,"Professional","2.0.10.353","2.0.10.353","10/16/17","10/16/17 19:39","14:39:02","2.0.10.248",4,5,73,NA,7,3136.123288,5,1,4,66,70,23,22,25,NA,NA,"SessionProc","OSPAN",2,1,NA,1,1,1,NA,NA,NA,NA,NA,NA,NA,"HML",NA,NA,NA,NA,NA,NA,NA,NA,NA,NA,6616,2,"No",NA,NA,NA,NA,NA,NA,"BlockProc",NA,NA,"BlockList1",NA,NA,2,NA,NA,3,NA,"?","?",1,FALSE,7,NA,NA,"HML",2,NA,NA,"H",FALSE,43,NA,NA,2,NA,NA,NA,NA,NA,NA,NA,"TrialProc",7,NA,NA,NA,NA,NA,NA,NA,NA,NA,NA,NA,"","TrialList",5,NA,NA,2,"?","?",NA,NA,NA,3,NA,NA,"High.wav",1,8,7,NA,NA,NA,NA,NA,NA,"531","NO RESPONSE",""
"4681","Tone Span Fall2017_itemScoring",532,1,"<?xml version=""1.0""?>\n<Clock xmlns:dt=""urn:schemas-microsoft-com:datatypes""><Description dt:dt=""string"">E-Prime Primary Realtime Clock</Description><StartTime><Timestamp dt:dt=""int"">0</Timestamp><DateUtc dt:dt=""string"">2017-10-16T19:40:51Z</DateUtc></StartTime><FrequencyChanges><FrequencyChange><Frequency dt:dt=""r8"">2822949</Frequency><Timestamp dt:dt=""r8"">982963206131</Timestamp><Current dt:dt=""r8"">0</Current><DateUtc dt:dt=""string"">2017-10-16T19:40:51Z</DateUtc></FrequencyChange></FrequencyChanges></Clock>\n","Tone Span Fall2017_itemScoring-532-1",62.495,"1.0.0.174",1,-583734720,"Professional","2.0.10.353","2.0.10.353","10/16/17","10/16/17 19:40","14:40:51","2.0.10.248",4,5,76,NA,5,2761.026316,5,1,4,22,47,12,13,22,NA,NA,"SessionProc","OSPAN",0,1,NA,1,1,1,NA,NA,NA,NA,NA,NA,NA,"LMHMLHH",NA,NA,NA,NA,NA,NA,NA,NA,NA,NA,5328,1,"No",NA,NA,NA,NA,NA,NA,"BlockProc",NA,NA,"BlockList1",NA,NA,6,NA,NA,7,NA,"?","?",1,FALSE,10,NA,NA,"LMHMLHH",1,NA,NA,"L",FALSE,27,NA,NA,2,NA,NA,NA,NA,NA,NA,NA,"TrialProc",12,NA,NA,NA,NA,NA,NA,NA,NA,NA,NA,NA,"","TrialList",1,NA,NA,2,"?","?",NA,NA,NA,1,NA,NA,"Low.wav",1,8,7,NA,NA,NA,NA,NA,NA,"532","NO RESPONSE",""
"4771","Tone Span Fall2017_itemScoring",533,1,"<?xml version=""1.0""?>\n<Clock xmlns:dt=""urn:schemas-microsoft-com:datatypes""><Description dt:dt=""string"">E-Prime Primary Realtime Clock</Description><StartTime><Timestamp dt:dt=""int"">0</Timestamp><DateUtc dt:dt=""string"">2017-10-16T19:47:10Z</DateUtc></StartTime><FrequencyChanges><FrequencyChange><Frequency dt:dt=""r8"">2727578</Frequency><Timestamp dt:dt=""r8"">1054400751798</Timestamp><Current dt:dt=""r8"">0</Current><DateUtc dt:dt=""string"">2017-10-16T19:47:10Z</DateUtc></FrequencyChange></FrequencyChanges></Clock>\n","Tone Span Fall2017_itemScoring-533-1",60.027,"1.0.0.172",1,2134298899,"","2.0.10.242","2.0.10.242","10/16/17","10/16/17 19:47","14:47:10","2.0.10.147",4,5,71,NA,9,2210.647887,5,1,4,51,64,20,20,24,NA,NA,"SessionProc","OSPAN",4,1,NA,1,1,1,NA,NA,NA,NA,NA,NA,NA,"MHLMLHH",NA,NA,NA,NA,NA,NA,NA,NA,NA,NA,3755,2,"No",NA,NA,NA,NA,NA,NA,"BlockProc",NA,NA,"BlockList1",NA,NA,6,NA,NA,7,NA,"?","?",1,TRUE,5,NA,NA,"MHLMLHH",1,NA,NA,"M",TRUE,32,NA,NA,1,NA,NA,NA,NA,NA,NA,NA,"TrialProc",2,NA,NA,NA,NA,NA,NA,NA,NA,NA,NA,NA,"","TrialList",11,NA,NA,1,"?","?",NA,NA,NA,2,NA,NA,"Middle.wav",1,8,7,NA,NA,NA,NA,NA,NA,"533","NO RESPONSE",""
"4861","Tone Span Fall2017_itemScoring",534,1,"<?xml version=""1.0""?>\n<Clock xmlns:dt=""urn:schemas-microsoft-com:datatypes""><Description dt:dt=""string"">E-Prime Primary Realtime Clock</Description><StartTime><Timestamp dt:dt=""int"">0</Timestamp><DateUtc dt:dt=""string"">2017-10-16T17:51:24Z</DateUtc></StartTime><FrequencyChanges><FrequencyChange><Frequency dt:dt=""r8"">2823007</Frequency><Timestamp dt:dt=""r8"">1010337227000</Timestamp><Current dt:dt=""r8"">0</Current><DateUtc dt:dt=""string"">2017-10-16T17:51:24Z</DateUtc></FrequencyChange></FrequencyChanges></Clock>\n","Tone Span Fall2017_itemScoring-530-1",59.731,"1.0.0.166",1,1020470370,"Professional","2.0.10.353","2.0.10.353","10/16/17","10/16/17 17:51","12:51:24","2.0.10.248",4,2,74,NA,7,2120.175676,5,1,4,42,63,19,22,22,NA,NA,"SessionProc","OSPAN",5,1,NA,1,1,1,NA,NA,NA,NA,NA,NA,NA,"LHMM",NA,NA,NA,NA,NA,NA,NA,NA,NA,NA,3787,0,"No",NA,NA,NA,NA,NA,NA,"BlockProc",NA,NA,"BlockList1",NA,NA,3,NA,NA,4,NA,"?","?",1,TRUE,5,NA,NA,"LHMM",1,NA,NA,"L",TRUE,7,NA,NA,1,NA,NA,NA,NA,NA,NA,NA,"TrialProc",18,NA,NA,NA,NA,NA,NA,NA,NA,NA,NA,NA,"","TrialList",12,NA,NA,1,"?","?",NA,NA,NA,1,NA,NA,"Low.wav",1,8,7,NA,NA,NA,NA,NA,NA,"534","EMAILED "," I tried to continuously repeat the words """"hi"""", """"lo"""" and """"mid"""" (like a chant somewhat) in the correct pattern of the tones, adding on each time I heard a new tone. I also sometimes tried to imagine them visually as a high dot, a middle dot, and a low dot and would sort of hop from one to the other in my brain and create a path that represented the tone orders. I tried to keep these things continuously on a loop in the back of my head while trying to use as little of my focus as possible to answer the math problems and still get them right."
"4951","Tone Span Fall2017_itemScoring",535,1,"<?xml version=""1.0""?>\n<Clock xmlns:dt=""urn:schemas-microsoft-com:datatypes""><Description dt:dt=""string"">E-Prime Primary Realtime Clock</Description><StartTime><Timestamp dt:dt=""int"">0</Timestamp><DateUtc dt:dt=""string"">2017-10-17T16:56:00Z</DateUtc></StartTime><FrequencyChanges><FrequencyChange><Frequency dt:dt=""r8"">2823007</Frequency><Timestamp dt:dt=""r8"">1244840104151</Timestamp><Current dt:dt=""r8"">0</Current><DateUtc dt:dt=""string"">2017-10-17T16:56:00Z</DateUtc></FrequencyChange></FrequencyChanges></Clock>\n","Tone Span Fall2017_itemScoring-535-1",59.731,"1.0.0.166",1,-700229525,"Professional","2.0.10.353","2.0.10.353","10/17/17","10/17/17 16:56","11:56:00","2.0.10.248",4,3,77,NA,3,3499.233766,5,1,4,18,44,17,12,15,NA,NA,"SessionProc","OSPAN",0,1,NA,1,1,1,NA,NA,NA,NA,NA,NA,NA,"MLH",NA,NA,NA,NA,NA,NA,NA,NA,NA,NA,10153,0,"No",NA,NA,NA,NA,NA,NA,"BlockProc",NA,NA,"BlockList1",NA,NA,2,NA,NA,3,NA,"?","?",1,TRUE,5,NA,NA,"MLH",2,NA,NA,"M",TRUE,47,NA,NA,1,NA,NA,NA,NA,NA,NA,NA,"TrialProc",17,NA,NA,NA,NA,NA,NA,NA,NA,NA,NA,NA,"","TrialList",13,NA,NA,1,"?","?",NA,NA,NA,2,NA,NA,"Middle.wav",1,8,7,NA,NA,NA,NA,NA,NA,"535","EMAILED "," I just sang the notes to myself, and came up with rhymes to remember the sequences sometimes. With the math, I just made sure not to overthink what I was doing."
"5041","Tone Span Fall2017_itemScoring",536,1,"<?xml version=""1.0""?>\n<Clock xmlns:dt=""urn:schemas-microsoft-com:datatypes""><Description dt:dt=""string"">E-Prime Primary Realtime Clock</Description><StartTime><Timestamp dt:dt=""int"">0</Timestamp><DateUtc dt:dt=""string"">2017-10-17T17:03:14Z</DateUtc></StartTime><FrequencyChanges><FrequencyChange><Frequency dt:dt=""r8"">2822949</Frequency><Timestamp dt:dt=""r8"">1200157393582</Timestamp><Current dt:dt=""r8"">0</Current><DateUtc dt:dt=""string"">2017-10-17T17:03:14Z</DateUtc></FrequencyChange></FrequencyChanges></Clock>\n","Tone Span Fall2017_itemScoring-536-1",62.499,"1.0.0.174",1,1862052321,"Professional","2.0.10.353","2.0.10.353","10/17/17","10/17/17 17:03","12:03:14","2.0.10.248",4,4,76,NA,5,3853.828947,5,1,4,49,69,22,22,25,NA,NA,"SessionProc","OSPAN",1,1,NA,1,1,1,NA,NA,NA,NA,NA,NA,NA,"LHMHL",NA,NA,NA,NA,NA,NA,NA,NA,NA,NA,9654,0,"No",NA,NA,NA,NA,NA,NA,"BlockProc",NA,NA,"BlockList1",NA,NA,4,NA,NA,5,NA,"?","?",1,FALSE,8,NA,NA,"LHMHL",2,NA,NA,"L",FALSE,48,NA,NA,2,NA,NA,NA,NA,NA,NA,NA,"TrialProc",3,NA,NA,NA,NA,NA,NA,NA,NA,NA,NA,NA,"","TrialList",8,NA,NA,2,"?","?",NA,NA,NA,1,NA,NA,"Low.wav",1,8,7,NA,NA,NA,NA,NA,NA,"536","NO RESPONSE",""
"5131","Tone Span Fall2017_itemScoring",537,1,"<?xml version=""1.0""?>\n<Clock xmlns:dt=""urn:schemas-microsoft-com:datatypes""><Description dt:dt=""string"">E-Prime Primary Realtime Clock</Description><StartTime><Timestamp dt:dt=""int"">0</Timestamp><DateUtc dt:dt=""string"">2017-10-17T17:15:17Z</DateUtc></StartTime><FrequencyChanges><FrequencyChange><Frequency dt:dt=""r8"">2727578</Frequency><Timestamp dt:dt=""r8"">1265204557540</Timestamp><Current dt:dt=""r8"">0</Current><DateUtc dt:dt=""string"">2017-10-17T17:15:17Z</DateUtc></FrequencyChange></FrequencyChanges></Clock>\n","Tone Span Fall2017_itemScoring-537-1",60.03,"1.0.0.172",1,-1810444150,"","2.0.10.242","2.0.10.242","10/17/17","10/17/17 17:15","12:15:17","2.0.10.147",4,6,74,NA,7,5294.945946,5,1,4,32,50,19,16,15,NA,NA,"SessionProc","OSPAN",1,1,NA,1,1,1,NA,NA,NA,NA,NA,NA,NA,"HLM",NA,NA,NA,NA,NA,NA,NA,NA,NA,NA,12086,0,"No",NA,NA,NA,NA,NA,NA,"BlockProc",NA,NA,"BlockList1",NA,NA,2,NA,NA,3,NA,"?","?",1,TRUE,5,NA,NA,"HLM",1,NA,NA,"H",TRUE,23,NA,NA,1,NA,NA,NA,NA,NA,NA,NA,"TrialProc",9,NA,NA,NA,NA,NA,NA,NA,NA,NA,NA,NA,"","TrialList",13,NA,NA,1,"?","?",NA,NA,NA,3,NA,NA,"High.wav",1,8,7,NA,NA,NA,NA,NA,NA,"537","EMAILED "," I made a finger stand for each high, low, or medium sound, and I would move my finger in a different position every time the pitch was played, to remember the number of times each pitch was played. Then I just focused on memorizing the order of the tunes. "
"5221","Tone Span Fall2017_itemScoring",538,1,"<?xml version=""1.0""?>\n<Clock xmlns:dt=""urn:schemas-microsoft-com:datatypes""><Description dt:dt=""string"">E-Prime Primary Realtime Clock</Description><StartTime><Timestamp dt:dt=""int"">0</Timestamp><DateUtc dt:dt=""string"">2017-10-17T20:43:13Z</DateUtc></StartTime><FrequencyChanges><FrequencyChange><Frequency dt:dt=""r8"">2823007</Frequency><Timestamp dt:dt=""r8"">1283324202787</Timestamp><Current dt:dt=""r8"">0</Current><DateUtc dt:dt=""string"">2017-10-17T20:43:13Z</DateUtc></FrequencyChange></FrequencyChanges></Clock>\n","Tone Span Fall2017_itemScoring-538-1",59.731,"1.0.0.166",1,-870479356,"Professional","2.0.10.353","2.0.10.353","10/17/17","10/17/17 20:43","15:43:13","2.0.10.248",4,4,76,NA,5,2423.421053,5,1,4,17,52,14,19,19,NA,NA,"SessionProc","OSPAN",1,1,NA,1,1,1,NA,NA,NA,NA,NA,NA,NA,"HMLLH",NA,NA,NA,NA,NA,NA,NA,NA,NA,NA,5664,0,"No",NA,NA,NA,NA,NA,NA,"BlockProc",NA,NA,"BlockList1",NA,NA,4,NA,NA,5,NA,"?","?",1,FALSE,8,NA,NA,"HMLLH",1,NA,NA,"H",FALSE,14,NA,NA,2,NA,NA,NA,NA,NA,NA,NA,"TrialProc",12,NA,NA,NA,NA,NA,NA,NA,NA,NA,NA,NA,"","TrialList",6,NA,NA,2,"?","?",NA,NA,NA,3,NA,NA,"High.wav",1,8,7,NA,NA,NA,NA,NA,NA,"538","NO RESPONSE",""
"5311","Tone Span Fall2017_itemScoring",539,1,"<?xml version=""1.0""?>\n<Clock xmlns:dt=""urn:schemas-microsoft-com:datatypes""><Description dt:dt=""string"">E-Prime Primary Realtime Clock</Description><StartTime><Timestamp dt:dt=""int"">0</Timestamp><DateUtc dt:dt=""string"">2017-10-17T20:42:10Z</DateUtc></StartTime><FrequencyChanges><FrequencyChange><Frequency dt:dt=""r8"">2822949</Frequency><Timestamp dt:dt=""r8"">1237238961200</Timestamp><Current dt:dt=""r8"">0</Current><DateUtc dt:dt=""string"">2017-10-17T20:42:10Z</DateUtc></FrequencyChange></FrequencyChanges></Clock>\n","Tone Span Fall2017_itemScoring-539-1",62.499,"1.0.0.174",1,288949118,"Professional","2.0.10.353","2.0.10.353","10/17/17","10/17/17 20:42","15:42:11","2.0.10.248",4,7,70,NA,10,2998.842857,5,1,4,57,66,17,24,25,NA,NA,"SessionProc","OSPAN",3,1,NA,1,1,1,NA,NA,NA,NA,NA,NA,NA,"HLMHLMH",NA,NA,NA,NA,NA,NA,NA,NA,NA,NA,5643,2,"No",NA,NA,NA,NA,NA,NA,"BlockProc",NA,NA,"BlockList1",NA,NA,6,NA,NA,7,NA,"?","?",1,TRUE,5,NA,NA,"HLMHLMH",1,NA,NA,"H",TRUE,23,NA,NA,1,NA,NA,NA,NA,NA,NA,NA,"TrialProc",6,NA,NA,NA,NA,NA,NA,NA,NA,NA,NA,NA,"","TrialList",14,NA,NA,1,"?","?",NA,NA,NA,3,NA,NA,"High.wav",1,8,7,NA,NA,NA,NA,NA,NA,"539","NO RESPONSE",""
"5401","Tone Span Fall2017_itemScoring",540,1,"<?xml version=""1.0""?>\n<Clock xmlns:dt=""urn:schemas-microsoft-com:datatypes""><Description dt:dt=""string"">E-Prime Primary Realtime Clock</Description><StartTime><Timestamp dt:dt=""int"">0</Timestamp><DateUtc dt:dt=""string"">2017-10-18T17:39:27Z</DateUtc></StartTime><FrequencyChanges><FrequencyChange><Frequency dt:dt=""r8"">2822978</Frequency><Timestamp dt:dt=""r8"">2846135146</Timestamp><Current dt:dt=""r8"">0</Current><DateUtc dt:dt=""string"">2017-10-18T17:39:27Z</DateUtc></FrequencyChange></FrequencyChanges></Clock>\n","Tone Span Fall2017_itemScoring-540-1",59.73,"1.0.0.166",1,-1448284877,"Professional","2.0.10.353","2.0.10.353","10/18/17","10/18/17 17:39","12:39:28","2.0.10.248",4,2,78,NA,3,2759.307692,5,1,4,48,67,21,23,23,NA,NA,"SessionProc","OSPAN",1,1,NA,1,1,1,NA,NA,NA,NA,NA,NA,NA,"LMHMLHH",NA,NA,NA,NA,NA,NA,NA,NA,NA,NA,5155,0,"No",NA,NA,NA,NA,NA,NA,"BlockProc",NA,NA,"BlockList1",NA,NA,6,NA,NA,7,NA,"?","?",1,TRUE,2,NA,NA,"LMHMLHH",1,NA,NA,"L",TRUE,12,NA,NA,1,NA,NA,NA,NA,NA,NA,NA,"TrialProc",11,NA,NA,NA,NA,NA,NA,NA,NA,NA,NA,NA,"","TrialList",5,NA,NA,1,"?","?",NA,NA,NA,1,NA,NA,"Low.wav",1,8,7,NA,NA,NA,NA,NA,NA,"540","NO RESPONSE",""
"5491","Tone Span Fall2017_itemScoring",541,1,"<?xml version=""1.0""?>\n<Clock xmlns:dt=""urn:schemas-microsoft-com:datatypes""><Description dt:dt=""string"">E-Prime Primary Realtime Clock</Description><StartTime><Timestamp dt:dt=""int"">0</Timestamp><DateUtc dt:dt=""string"">2017-10-18T17:37:26Z</DateUtc></StartTime><FrequencyChanges><FrequencyChange><Frequency dt:dt=""r8"">2727558</Frequency><Timestamp dt:dt=""r8"">2442452273</Timestamp><Current dt:dt=""r8"">0</Current><DateUtc dt:dt=""string"">2017-10-18T17:37:26Z</DateUtc></FrequencyChange></FrequencyChanges></Clock>\n","Tone Span Fall2017_itemScoring-541-1",60.026,"1.0.0.172",1,-1851976957,"","2.0.10.242","2.0.10.242","10/18/17","10/18/17 17:37","12:37:26","2.0.10.147",4,0,80,NA,1,2073.6375,5,1,4,31,57,19,19,19,NA,NA,"SessionProc","OSPAN",1,1,NA,1,1,1,NA,NA,NA,NA,NA,NA,NA,"MHL",NA,NA,NA,NA,NA,NA,NA,NA,NA,NA,4572,0,"No",NA,NA,NA,NA,NA,NA,"BlockProc",NA,NA,"BlockList1",NA,NA,2,NA,NA,3,NA,"?","?",1,FALSE,8,NA,NA,"MHL",2,NA,NA,"M",FALSE,44,NA,NA,2,NA,NA,NA,NA,NA,NA,NA,"TrialProc",16,NA,NA,NA,NA,NA,NA,NA,NA,NA,NA,NA,"","TrialList",6,NA,NA,2,"?","?",NA,NA,NA,2,NA,NA,"Middle.wav",1,8,7,NA,NA,NA,NA,NA,NA,"541","NO RESPONSE",""
"5581","Tone Span Fall2017_itemScoring",542,1,"<?xml version=""1.0""?>\n<Clock xmlns:dt=""urn:schemas-microsoft-com:datatypes""><Description dt:dt=""string"">E-Prime Primary Realtime Clock</Description><StartTime><Timestamp dt:dt=""int"">0</Timestamp><DateUtc dt:dt=""string"">2017-10-18T17:40:31Z</DateUtc></StartTime><FrequencyChanges><FrequencyChange><Frequency dt:dt=""r8"">2822978</Frequency><Timestamp dt:dt=""r8"">2077509186</Timestamp><Current dt:dt=""r8"">0</Current><DateUtc dt:dt=""string"">2017-10-18T17:40:31Z</DateUtc></FrequencyChange></FrequencyChanges></Clock>\n","Tone Span Fall2017_itemScoring-542-1",62.496,"1.0.0.174",1,2078045810,"Professional","2.0.10.353","2.0.10.353","10/18/17","10/18/17 17:40","12:40:31","2.0.10.248",4,3,76,NA,4,4536.026316,5,1,4,68,74,24,25,25,NA,NA,"SessionProc","OSPAN",1,1,NA,1,1,1,NA,NA,NA,NA,NA,NA,NA,"HMLLHMM",NA,NA,NA,NA,NA,NA,NA,NA,NA,NA,21897,0,"No",NA,NA,NA,NA,NA,NA,"BlockProc",NA,NA,"BlockList1",NA,NA,6,NA,NA,7,NA,"?","?",1,TRUE,2,NA,NA,"HMLLHMM",1,NA,NA,"H",TRUE,12,NA,NA,1,NA,NA,NA,NA,NA,NA,NA,"TrialProc",6,NA,NA,NA,NA,NA,NA,NA,NA,NA,NA,NA,"","TrialList",2,NA,NA,1,"?","?",NA,NA,NA,3,NA,NA,"High.wav",1,8,7,NA,NA,NA,NA,NA,NA,"542","NO RESPONSE",""
"5671","Tone Span Fall2017_itemScoring",543,1,"<?xml version=""1.0""?>\n<Clock xmlns:dt=""urn:schemas-microsoft-com:datatypes""><Description dt:dt=""string"">E-Prime Primary Realtime Clock</Description><StartTime><Timestamp dt:dt=""int"">0</Timestamp><DateUtc dt:dt=""string"">2017-10-18T19:43:58Z</DateUtc></StartTime><FrequencyChanges><FrequencyChange><Frequency dt:dt=""r8"">2822978</Frequency><Timestamp dt:dt=""r8"">23935345888</Timestamp><Current dt:dt=""r8"">0</Current><DateUtc dt:dt=""string"">2017-10-18T19:43:58Z</DateUtc></FrequencyChange></FrequencyChanges></Clock>\n","Tone Span Fall2017_itemScoring-543-1",59.73,"1.0.0.166",1,-1833922017,"Professional","2.0.10.353","2.0.10.353","10/18/17","10/18/17 19:43","14:43:58","2.0.10.248",4,3,74,NA,6,3001.5,5,1,4,7,30,10,11,9,NA,NA,"SessionProc","OSPAN",3,1,NA,1,1,1,NA,NA,NA,NA,NA,NA,NA,"MLHHML",NA,NA,NA,NA,NA,NA,NA,NA,NA,NA,6054,0,"No",NA,NA,NA,NA,NA,NA,"BlockProc",NA,NA,"BlockList1",NA,NA,5,NA,NA,6,NA,"?","?",1,FALSE,9,NA,NA,"MLHHML",1,NA,NA,"M",FALSE,8,NA,NA,2,NA,NA,NA,NA,NA,NA,NA,"TrialProc",1,NA,NA,NA,NA,NA,NA,NA,NA,NA,NA,NA,"","TrialList",6,NA,NA,2,"?","?",NA,NA,NA,2,NA,NA,"Middle.wav",1,8,7,NA,NA,NA,NA,NA,NA,"543","NO RESPONSE",""
"5761","Tone Span Fall2017_itemScoring",544,1,"<?xml version=""1.0""?>\n<Clock xmlns:dt=""urn:schemas-microsoft-com:datatypes""><Description dt:dt=""string"">E-Prime Primary Realtime Clock</Description><StartTime><Timestamp dt:dt=""int"">0</Timestamp><DateUtc dt:dt=""string"">2017-10-18T19:44:42Z</DateUtc></StartTime><FrequencyChanges><FrequencyChange><Frequency dt:dt=""r8"">2727558</Frequency><Timestamp dt:dt=""r8"">23270675012</Timestamp><Current dt:dt=""r8"">0</Current><DateUtc dt:dt=""string"">2017-10-18T19:44:42Z</DateUtc></FrequencyChange></FrequencyChanges></Clock>\n","Tone Span Fall2017_itemScoring-544-1",60.026,"1.0.0.172",1,1796384728,"","2.0.10.242","2.0.10.242","10/18/17","10/18/17 19:44","14:44:43","2.0.10.147",4,1,79,NA,1,1835.949367,5,1,4,30,52,14,21,17,NA,NA,"SessionProc","OSPAN",0,1,NA,1,1,1,NA,NA,NA,NA,NA,NA,NA,"MLHM",NA,NA,NA,NA,NA,NA,NA,NA,NA,NA,3675,1,"No",NA,NA,NA,NA,NA,NA,"BlockProc",NA,NA,"BlockList1",NA,NA,3,NA,NA,4,NA,"?","?",1,FALSE,9,NA,NA,"MLHM",1,NA,NA,"M",FALSE,10,NA,NA,2,NA,NA,NA,NA,NA,NA,NA,"TrialProc",18,NA,NA,NA,NA,NA,NA,NA,NA,NA,NA,NA,"","TrialList",15,NA,NA,2,"?","?",NA,NA,NA,2,NA,NA,"Middle.wav",1,8,7,NA,NA,NA,NA,NA,NA,"544","NO RESPONSE",""
"5851","Tone Span Fall2017_itemScoring",545,1,"<?xml version=""1.0""?>\n<Clock xmlns:dt=""urn:schemas-microsoft-com:datatypes""><Description dt:dt=""string"">E-Prime Primary Realtime Clock</Description><StartTime><Timestamp dt:dt=""int"">0</Timestamp><DateUtc dt:dt=""string"">2017-10-23T17:40:09Z</DateUtc></StartTime><FrequencyChanges><FrequencyChange><Frequency dt:dt=""r8"">2727558</Frequency><Timestamp dt:dt=""r8"">1181186788002</Timestamp><Current dt:dt=""r8"">0</Current><DateUtc dt:dt=""string"">2017-10-23T17:40:09Z</DateUtc></FrequencyChange></FrequencyChanges></Clock>\n","Tone Span Fall2017_itemScoring-545-1",60.026,"1.0.0.172",1,71321510,"","2.0.10.242","2.0.10.242","10/23/17","10/23/17 17:40","12:40:09","2.0.10.147",4,7,72,NA,8,3479.333333,5,1,4,51,65,23,21,21,NA,NA,"SessionProc","OSPAN",1,1,NA,1,1,1,NA,NA,NA,NA,NA,NA,NA,"LMHML",NA,NA,NA,NA,NA,NA,NA,NA,NA,NA,8266,1,"No",NA,NA,NA,NA,NA,NA,"BlockProc",NA,NA,"BlockList1",NA,NA,4,NA,NA,5,NA,"?","?",1,TRUE,5,NA,NA,"LMHML",1,NA,NA,"L",TRUE,36,NA,NA,1,NA,NA,NA,NA,NA,NA,NA,"TrialProc",11,NA,NA,NA,NA,NA,NA,NA,NA,NA,NA,NA,"","TrialList",11,NA,NA,1,"?","?",NA,NA,NA,1,NA,NA,"Low.wav",1,8,7,NA,NA,NA,NA,NA,NA,"545","NO RESPONSE",""
"5941","Tone Span Fall2017_itemScoring",546,1,"<?xml version=""1.0""?>\n<Clock xmlns:dt=""urn:schemas-microsoft-com:datatypes""><Description dt:dt=""string"">E-Prime Primary Realtime Clock</Description><StartTime><Timestamp dt:dt=""int"">0</Timestamp><DateUtc dt:dt=""string"">2017-10-25T17:42:46Z</DateUtc></StartTime><FrequencyChanges><FrequencyChange><Frequency dt:dt=""r8"">2822978</Frequency><Timestamp dt:dt=""r8"">2721332786</Timestamp><Current dt:dt=""r8"">0</Current><DateUtc dt:dt=""string"">2017-10-25T17:42:46Z</DateUtc></FrequencyChange></FrequencyChanges></Clock>\n","Tone Span Fall2017_itemScoring-546-1",59.73,"1.0.0.174",1,-1573061299,"Professional","2.0.10.353","2.0.10.353","10/25/17","10/25/17 17:42","12:42:46","2.0.10.248",4,4,74,NA,6,2323.527027,5,1,4,4,24,10,7,7,NA,NA,"SessionProc","OSPAN",2,1,NA,1,1,1,NA,NA,NA,NA,NA,NA,NA,"MHLHM",NA,NA,NA,NA,NA,NA,NA,NA,NA,NA,4509,0,"No",NA,NA,NA,NA,NA,NA,"BlockProc",NA,NA,"BlockList1",NA,NA,4,NA,NA,5,NA,"?","?",1,FALSE,6,NA,NA,"MHLHM",2,NA,NA,"M",FALSE,39,NA,NA,2,NA,NA,NA,NA,NA,NA,NA,"TrialProc",5,NA,NA,NA,NA,NA,NA,NA,NA,NA,NA,NA,"","TrialList",14,NA,NA,2,"?","?",NA,NA,NA,2,NA,NA,"Middle.wav",1,8,7,NA,NA,NA,NA,NA,NA,"546","EMAILED "," I would just remember the first letter of each tone type and keep repeating that in my head as I solved the math problems."
"6031","Tone Span Fall2017_itemScoring",547,1,"<?xml version=""1.0""?>\n<Clock xmlns:dt=""urn:schemas-microsoft-com:datatypes""><Description dt:dt=""string"">E-Prime Primary Realtime Clock</Description><StartTime><Timestamp dt:dt=""int"">0</Timestamp><DateUtc dt:dt=""string"">2017-10-25T17:41:22Z</DateUtc></StartTime><FrequencyChanges><FrequencyChange><Frequency dt:dt=""r8"">2727578</Frequency><Timestamp dt:dt=""r8"">2366153155</Timestamp><Current dt:dt=""r8"">0</Current><DateUtc dt:dt=""string"">2017-10-25T17:41:22Z</DateUtc></FrequencyChange></FrequencyChanges></Clock>\n","Tone Span Fall2017_itemScoring-547-1",60.028,"1.0.0.172",1,-1928286871,"","2.0.10.242","2.0.10.242","10/25/17","10/25/17 17:41","12:41:22","2.0.10.147",4,11,68,NA,13,2152.220588,5,1,4,21,43,16,8,19,NA,NA,"SessionProc","OSPAN",2,1,NA,1,1,1,NA,NA,NA,NA,NA,NA,NA,"HLMLM",NA,NA,NA,NA,NA,NA,NA,NA,NA,NA,4839,0,"No",NA,NA,NA,NA,NA,NA,"BlockProc",NA,NA,"BlockList1",NA,NA,4,NA,NA,5,NA,"?","?",1,TRUE,2,NA,NA,"HLMLM",1,NA,NA,"H",TRUE,11,NA,NA,1,NA,NA,NA,NA,NA,NA,NA,"TrialProc",6,NA,NA,NA,NA,NA,NA,NA,NA,NA,NA,NA,"","TrialList",18,NA,NA,1,"?","?",NA,NA,NA,3,NA,NA,"High.wav",1,8,7,NA,NA,NA,NA,NA,NA,"547","EMAILED "," A few strategies I used in the experiment were audiating the pitches in my head as if i were simply remembering my favorite song as i did the math. It was very relaxed as to avoid the stress of """"trying"""" to remember something."
"6121","Tone Span Fall2017_itemScoring",548,1,"<?xml version=""1.0""?>\n<Clock xmlns:dt=""urn:schemas-microsoft-com:datatypes""><Description dt:dt=""string"">E-Prime Primary Realtime Clock</Description><StartTime><Timestamp dt:dt=""int"">0</Timestamp><DateUtc dt:dt=""string"">2017-10-26T17:12:17Z</DateUtc></StartTime><FrequencyChanges><FrequencyChange><Frequency dt:dt=""r8"">2727578</Frequency><Timestamp dt:dt=""r8"">3345059092</Timestamp><Current dt:dt=""r8"">0</Current><DateUtc dt:dt=""string"">2017-10-26T17:12:17Z</DateUtc></FrequencyChange></FrequencyChanges></Clock>\n","Tone Span Fall2017_itemScoring-548-1",60.031,"1.0.0.172",1,-949560973,"","2.0.10.242","2.0.10.242","10/26/17","10/26/17 17:12","12:12:17","2.0.10.147",4,8,72,NA,9,4185.597222,5,1,4,51,61,19,17,25,NA,NA,"SessionProc","OSPAN",1,1,NA,1,1,1,NA,NA,NA,NA,NA,NA,NA,"MHLMLH",NA,NA,NA,NA,NA,NA,NA,NA,NA,NA,11793,1,"No",NA,NA,NA,NA,NA,NA,"BlockProc",NA,NA,"BlockList1",NA,NA,5,NA,NA,6,NA,"?","?",1,FALSE,8,NA,NA,"MHLMLH",1,NA,NA,"M",FALSE,28,NA,NA,2,NA,NA,NA,NA,NA,NA,NA,"TrialProc",9,NA,NA,NA,NA,NA,NA,NA,NA,NA,NA,NA,"","TrialList",7,NA,NA,2,"?","?",NA,NA,NA,2,NA,NA,"Middle.wav",1,8,7,NA,NA,NA,NA,NA,NA,"548","NO RESPONSE",""
"6211","Tone Span Fall2017_itemScoring",549,1,"<?xml version=""1.0""?>\n<Clock xmlns:dt=""urn:schemas-microsoft-com:datatypes""><Description dt:dt=""string"">E-Prime Primary Realtime Clock</Description><StartTime><Timestamp dt:dt=""int"">0</Timestamp><DateUtc dt:dt=""string"">2017-10-26T17:06:32Z</DateUtc></StartTime><FrequencyChanges><FrequencyChange><Frequency dt:dt=""r8"">2822998</Frequency><Timestamp dt:dt=""r8"">2857603727</Timestamp><Current dt:dt=""r8"">0</Current><DateUtc dt:dt=""string"">2017-10-26T17:06:32Z</DateUtc></FrequencyChange></FrequencyChanges></Clock>\n","Tone Span Fall2017_itemScoring-549-1",59.731,"1.0.0.174",1,-1436995559,"Professional","2.0.10.353","2.0.10.353","10/26/17","10/26/17 17:06","12:06:32","2.0.10.248",4,7,72,NA,8,2248.041667,5,1,4,61,72,24,25,23,NA,NA,"SessionProc","OSPAN",1,1,NA,1,1,1,NA,NA,NA,NA,NA,NA,NA,"MLHMLH",NA,NA,NA,NA,NA,NA,NA,NA,NA,NA,4649,1,"No",NA,NA,NA,NA,NA,NA,"BlockProc",NA,NA,"BlockList1",NA,NA,5,NA,NA,6,NA,"?","?",1,TRUE,3,NA,NA,"MLHMLH",1,NA,NA,"M",TRUE,23,NA,NA,1,NA,NA,NA,NA,NA,NA,NA,"TrialProc",8,NA,NA,NA,NA,NA,NA,NA,NA,NA,NA,NA,"","TrialList",11,NA,NA,1,"?","?",NA,NA,NA,2,NA,NA,"Middle.wav",1,8,7,NA,NA,NA,NA,NA,NA,"549","EMAILED "," Some strategies I used for remembering tone while solving math equations were repeating the tones in order in my head over and over until I came to the screen where I input them and did so to the best of my knowledge."
"6301","Tone Span Fall2017_itemScoring",550,1,"<?xml version=""1.0""?>\n<Clock xmlns:dt=""urn:schemas-microsoft-com:datatypes""><Description dt:dt=""string"">E-Prime Primary Realtime Clock</Description><StartTime><Timestamp dt:dt=""int"">0</Timestamp><DateUtc dt:dt=""string"">2017-10-30T17:50:25Z</DateUtc></StartTime><FrequencyChanges><FrequencyChange><Frequency dt:dt=""r8"">2727578</Frequency><Timestamp dt:dt=""r8"">952227476140</Timestamp><Current dt:dt=""r8"">0</Current><DateUtc dt:dt=""string"">2017-10-30T17:50:25Z</DateUtc></FrequencyChange></FrequencyChanges></Clock>\n","Tone Span Fall2017_itemScoring-550-1",60.027,"1.0.0.172",1,-1254739638,"","2.0.10.242","2.0.10.242","10/30/17","10/30/17 17:50","12:50:25","2.0.10.147",4,3,77,NA,4,4465.402597,5,1,4,64,70,20,25,25,NA,NA,"SessionProc","OSPAN",1,1,NA,1,1,1,NA,NA,NA,NA,NA,NA,NA,"LHMLH",NA,NA,NA,NA,NA,NA,NA,NA,NA,NA,10686,0,"No",NA,NA,NA,NA,NA,NA,"BlockProc",NA,NA,"BlockList1",NA,NA,4,NA,NA,5,NA,"?","?",1,FALSE,7,NA,NA,"LHMLH",1,NA,NA,"L",FALSE,30,NA,NA,2,NA,NA,NA,NA,NA,NA,NA,"TrialProc",3,NA,NA,NA,NA,NA,NA,NA,NA,NA,NA,NA,"","TrialList",14,NA,NA,2,"?","?",NA,NA,NA,1,NA,NA,"Low.wav",1,8,7,NA,NA,NA,NA,NA,NA,"550","NO RESPONSE",""
"6391","Tone Span Fall2017_itemScoring",551,1,"<?xml version=""1.0""?>\n<Clock xmlns:dt=""urn:schemas-microsoft-com:datatypes""><Description dt:dt=""string"">E-Prime Primary Realtime Clock</Description><StartTime><Timestamp dt:dt=""int"">0</Timestamp><DateUtc dt:dt=""string"">2017-10-30T20:42:24Z</DateUtc></StartTime><FrequencyChanges><FrequencyChange><Frequency dt:dt=""r8"">2822998</Frequency><Timestamp dt:dt=""r8"">1014805409361</Timestamp><Current dt:dt=""r8"">0</Current><DateUtc dt:dt=""string"">2017-10-30T20:42:24Z</DateUtc></FrequencyChange></FrequencyChanges></Clock>\n","Tone Span Fall2017_itemScoring-551-1",59.731,"1.0.0.174",1,1193680194,"Professional","2.0.10.353","2.0.10.353","10/30/17","10/30/17 20:42","15:42:24","2.0.10.248",4,1,80,NA,1,2935.4625,5,1,4,68,74,25,24,25,NA,NA,"SessionProc","OSPAN",0,1,NA,1,1,1,NA,NA,NA,NA,NA,NA,NA,"LHMMHL",NA,NA,NA,NA,NA,NA,NA,NA,NA,NA,14285,0,"No",NA,NA,NA,NA,NA,NA,"BlockProc",NA,NA,"BlockList1",NA,NA,5,NA,NA,6,NA,"?","?",1,FALSE,6,NA,NA,"LHMMHL",1,NA,NA,"L",FALSE,28,NA,NA,2,NA,NA,NA,NA,NA,NA,NA,"TrialProc",1,NA,NA,NA,NA,NA,NA,NA,NA,NA,NA,NA,"","TrialList",4,NA,NA,2,"?","?",NA,NA,NA,1,NA,NA,"Low.wav",1,8,7,NA,NA,NA,NA,NA,NA,"551","EMAILED "," I believe in that task I assigned a letter to each tone and was able to keep track of the pattern in my head. Audiating the pitches while repeating the pattern was also very helpful."
"6481","Tone Span Fall2017_itemScoring",552,1,"<?xml version=""1.0""?>\n<Clock xmlns:dt=""urn:schemas-microsoft-com:datatypes""><Description dt:dt=""string"">E-Prime Primary Realtime Clock</Description><StartTime><Timestamp dt:dt=""int"">0</Timestamp><DateUtc dt:dt=""string"">2017-10-30T20:45:36Z</DateUtc></StartTime><FrequencyChanges><FrequencyChange><Frequency dt:dt=""r8"">2823017</Frequency><Timestamp dt:dt=""r8"">3251869030</Timestamp><Current dt:dt=""r8"">0</Current><DateUtc dt:dt=""string"">2017-10-30T20:45:36Z</DateUtc></FrequencyChange></FrequencyChanges></Clock>\n","Tone Span Fall2017_itemScoring-552-1",59.731,"1.0.0.166",1,-1042547121,"Professional","2.0.10.353","2.0.10.353","10/30/17","10/30/17 20:45","15:45:36","2.0.10.248",4,1,78,NA,2,2083.371795,5,1,4,61,71,25,24,22,NA,NA,"SessionProc","OSPAN",1,1,NA,1,1,1,NA,NA,NA,NA,NA,NA,NA,"LMH",NA,NA,NA,NA,NA,NA,NA,NA,NA,NA,4693,0,"No",NA,NA,NA,NA,NA,NA,"BlockProc",NA,NA,"BlockList1",NA,NA,2,NA,NA,3,NA,"?","?",1,FALSE,6,NA,NA,"LMH",1,NA,NA,"L",FALSE,9,NA,NA,2,NA,NA,NA,NA,NA,NA,NA,"TrialProc",9,NA,NA,NA,NA,NA,NA,NA,NA,NA,NA,NA,"","TrialList",14,NA,NA,2,"?","?",NA,NA,NA,1,NA,NA,"Low.wav",1,8,7,NA,NA,NA,NA,NA,NA,"552","NO RESPONSE",""
"6571","Tone Span Fall2017_itemScoring",553,1,"<?xml version=""1.0""?>\n<Clock xmlns:dt=""urn:schemas-microsoft-com:datatypes""><Description dt:dt=""string"">E-Prime Primary Realtime Clock</Description><StartTime><Timestamp dt:dt=""int"">0</Timestamp><DateUtc dt:dt=""string"">2017-10-31T17:05:30Z</DateUtc></StartTime><FrequencyChanges><FrequencyChange><Frequency dt:dt=""r8"">2822958</Frequency><Timestamp dt:dt=""r8"">2146902464</Timestamp><Current dt:dt=""r8"">0</Current><DateUtc dt:dt=""string"">2017-10-31T17:05:30Z</DateUtc></FrequencyChange></FrequencyChanges></Clock>\n","Tone Span Fall2017_itemScoring-553-1",59.73,"1.0.0.166",1,2147086350,"Professional","2.0.10.353","2.0.10.353","10/31/17","10/31/17 17:05","12:05:30","2.0.10.248",4,1,76,NA,3,3477.657895,5,1,4,34,55,17,18,20,NA,NA,"SessionProc","OSPAN",2,1,NA,1,1,1,NA,NA,NA,NA,NA,NA,NA,"MHLHL",NA,NA,NA,NA,NA,NA,NA,NA,NA,NA,6439,0,"No",NA,NA,NA,NA,NA,NA,"BlockProc",NA,NA,"BlockList1",NA,NA,4,NA,NA,5,NA,"?","?",1,TRUE,4,NA,NA,"MHLHL",1,NA,NA,"M",TRUE,9,NA,NA,1,NA,NA,NA,NA,NA,NA,NA,"TrialProc",1,NA,NA,NA,NA,NA,NA,NA,NA,NA,NA,NA,"","TrialList",14,NA,NA,1,"?","?",NA,NA,NA,2,NA,NA,"Middle.wav",1,8,7,NA,NA,NA,NA,NA,NA,"553","NO RESPONSE",""
"6661","Tone Span Fall2017_itemScoring",554,1,"<?xml version=""1.0""?>\n<Clock xmlns:dt=""urn:schemas-microsoft-com:datatypes""><Description dt:dt=""string"">E-Prime Primary Realtime Clock</Description><StartTime><Timestamp dt:dt=""int"">0</Timestamp><DateUtc dt:dt=""string"">2017-10-31T17:04:22Z</DateUtc></StartTime><FrequencyChanges><FrequencyChange><Frequency dt:dt=""r8"">2727578</Frequency><Timestamp dt:dt=""r8"">1877651555</Timestamp><Current dt:dt=""r8"">0</Current><DateUtc dt:dt=""string"">2017-10-31T17:04:22Z</DateUtc></FrequencyChange></FrequencyChanges></Clock>\n","Tone Span Fall2017_itemScoring-554-1",60.029,"1.0.0.172",1,1878003403,"","2.0.10.242","2.0.10.242","10/31/17","10/31/17 17:04","12:04:22","2.0.10.147",4,0,81,NA,0,3398.222222,5,1,4,56,64,19,20,25,NA,NA,"SessionProc","OSPAN",0,1,NA,1,1,1,NA,NA,NA,NA,NA,NA,NA,"LMHH",NA,NA,NA,NA,NA,NA,NA,NA,NA,NA,8073,0,"No",NA,NA,NA,NA,NA,NA,"BlockProc",NA,NA,"BlockList1",NA,NA,3,NA,NA,4,NA,"?","?",1,FALSE,8,NA,NA,"LMHH",1,NA,NA,"L",FALSE,4,NA,NA,2,NA,NA,NA,NA,NA,NA,NA,"TrialProc",4,NA,NA,NA,NA,NA,NA,NA,NA,NA,NA,NA,"","TrialList",5,NA,NA,2,"?","?",NA,NA,NA,1,NA,NA,"Low.wav",1,8,7,NA,NA,NA,NA,NA,NA,"554","NO RESPONSE",""
"6751","Tone Span Fall2017_itemScoring",555,1,"<?xml version=""1.0""?>\n<Clock xmlns:dt=""urn:schemas-microsoft-com:datatypes""><Description dt:dt=""string"">E-Prime Primary Realtime Clock</Description><StartTime><Timestamp dt:dt=""int"">0</Timestamp><DateUtc dt:dt=""string"">2017-10-31T17:06:22Z</DateUtc></StartTime><FrequencyChanges><FrequencyChange><Frequency dt:dt=""r8"">2822978</Frequency><Timestamp dt:dt=""r8"">2324751804</Timestamp><Current dt:dt=""r8"">0</Current><DateUtc dt:dt=""string"">2017-10-31T17:06:22Z</DateUtc></FrequencyChange></FrequencyChanges></Clock>\n","Tone Span Fall2017_itemScoring-555-1",59.73,"1.0.0.174",1,-1969869955,"Professional","2.0.10.353","2.0.10.353","10/31/17","10/31/17 17:06","12:06:22","2.0.10.248",4,4,77,NA,4,2317.883117,5,1,4,33,59,19,21,19,NA,NA,"SessionProc","OSPAN",0,1,NA,1,1,1,NA,NA,NA,NA,NA,NA,NA,"LMHLMH",NA,NA,NA,NA,NA,NA,NA,NA,NA,NA,6162,0,"No",NA,NA,NA,NA,NA,NA,"BlockProc",NA,NA,"BlockList1",NA,NA,5,NA,NA,6,NA,"?","?",1,TRUE,4,NA,NA,"LMHLMH",1,NA,NA,"L",TRUE,5,NA,NA,1,NA,NA,NA,NA,NA,NA,NA,"TrialProc",7,NA,NA,NA,NA,NA,NA,NA,NA,NA,NA,NA,"","TrialList",1,NA,NA,1,"?","?",NA,NA,NA,1,NA,NA,"Low.wav",1,8,7,NA,NA,NA,NA,NA,NA,"555","EMAILED "," I remember using my fingers to represent low middle and high tones and then created a pattern by tapping the corresponding finger to the note it represented when I heard the tones being played. While I had that pattern I solved the math problems like normal in the midst of it"
